timestamp,ax,ay,az,gx,gy,gz
0.0,-0.15981642385716696,9.917685230396588,0.04368883783823038,-2.4617770557881893,-3.720341809332255,4.672978863594612
20.0,-0.4412703020447937,9.206486319618108,-4.645462086778668,13.01852816464753,-17.092854037305447,-29.61469944662751
40.0,0.14522904766297348,6.256212132186921,3.4211050243691767,-25.42625040181847,25.99992215958237,-3.3137988649827896
60.0,1.7860667873145983,16.857360694050865,-0.5431502105244194,34.68306101888002,-18.64169442252121,24.90407425857783
80.0,-4.113911147227106,5.557250822483756,0.8158707679161545,-33.34528900560169,8.020243112558637,5.579539517666795
100.0,6.127840100242135,12.311596232263062,0.5176069019041648,34.502364479978326,13.693778391527191,-30.67674355757297
120.0,-6.696464728744499,4.759333432088238,-4.2334645804731235,-28.34661634786423,-25.239606837007248,-11.360462165779364
140.0,4.985271629842325,14.4319275504615,4.870252839646891,21.857421654387764,21.675837578063526,29.040579948574585
160.0,-1.3155343960121229,10.418204404651645,0.5556358361343603,-2.384556257755138,-5.726024101080995,12.156199552791763
180.0,-2.481081552793674,6.8973604458709765,-3.4134795495752046,-9.109455593044302,-15.108908045985325,-25.399228357192964
200.0,5.262873316183169,11.21066856957255,2.1735564759714037,18.5766492713604,25.471738250914935,-19.11650132571656
220.0,-6.556522260488844,7.466863989479858,-1.4245785654014766,-27.633236872006417,-22.57295413378794,19.612480233062456
240.0,5.645205519425243,16.29035309508277,2.7608518969353186,33.34451324354799,6.451951798913488,26.636681336674894
260.0,-2.815698821943917,3.4159679196925747,0.42901873997734724,-32.418109934561706,12.008207596830964,-17.125496890942507
280.0,0.9172967436821243,11.972737575535003,-5.378853055174364,29.747036698566717,-23.555008765210367,-25.938035953646768
300.0,-0.13949930220619172,7.332415901655842,3.947967119898261,-20.92392549622979,25.95667786110593,13.511921872549145
320.0,0.5893376965189464,14.27107240937286,0.6789054440609463,17.738111411362915,-7.832777186166068,33.24794786377323
340.0,-1.2297682715484801,9.11323741117936,-2.1078396345070574,3.5617669878866622,-11.96373813380132,-7.268966393842359
360.0,1.2548149582325574,5.7384199753234775,0.8146139927153389,-12.042329442955616,21.181069902798857,-28.16524700788886
380.0,0.2300268355261363,13.985289135291842,-2.8995905400385613,21.67326487571588,-23.86434298770612,4.368712139520973
400.0,-2.6632090702552027,7.743563006748413,3.515593040378342,-29.75533407688124,12.968924194972033,27.751314208591026
420.0,5.4281325904740765,14.905213737791637,0.4838624511957881,33.66430611633563,7.877755582581561,-0.2021711980134151
440.0,-6.696899722944086,2.64622533350678,-5.228596978261106,-36.191905108441816,-22.970959902957627,-31.919153704260673
460.0,6.304705985682507,13.21500227434457,3.0947494507510918,25.70949338707391,23.220942017002393,0.12785785467916178
480.0,-3.879208373313861,10.21990080707493,0.17220423751247504,-17.600673086472778,-13.198302780990932,26.89859057433538
500.0,-0.10882933561755245,11.12976541625893,-0.4820530447731248,1.4717363278408628,-4.765659137434359,10.837618642703532
520.0,3.0182039448096005,8.847885279079515,1.1419431983702892,6.987241867720309,18.06386241330763,-28.661292401226834
540.0,-5.724040855609272,6.273958889669294,-4.283261134977915,-21.751264183449734,-24.571251820301665,-8.67386974516549
560.0,5.564726833827531,16.05476109656941,3.5213416598508473,28.562847044512974,13.332690633147436,28.094269055306892
580.0,-3.8696276907708036,6.302777569076893,1.2848033350508303,-30.29931481437236,0.1506161241053281,20.03051277025921
600.0,2.421831538114559,12.646713526310055,-4.353588232775162,36.13322678017711,-17.616376492865232,-23.59060771622932
620.0,-0.7152268145800055,3.781592864517536,2.112642869068722,-29.968238393773785,21.27351043459661,-18.193184732143806
640.0,0.6178757624001253,15.10338849228164,-0.9263650192434604,22.686133591139477,-16.234920856835668,21.37695094290832
660.0,-1.5487870288726437,10.036360766175124,1.5836816520980128,-11.095985469592303,-1.2008734888206973,22.799613102221674
680.0,1.8247962295134315,8.2668063643418,1.1457794898879576,-1.0393583911446589,17.43344257723086,-19.772974595106533
700.0,-1.3679225306009133,9.967948993942118,-5.068609123939911,12.282691487633526,-26.570162719388552,-24.36848151917263
720.0,-1.2963902854980214,7.750632122112212,3.4650707325924275,-27.33162541456842,20.6981051100187,17.385382850899607
740.0,4.262057292270968,16.57715686825245,1.3985570094165802,34.19623765937764,-1.6611654264979214,23.444646234779967
760.0,-6.501564254749503,4.008690594037558,-3.0097077873510636,-35.75884270471216,-14.840087024014462,-10.362312372867532
780.0,7.129268378704533,12.250171610048255,1.7368767176259285,33.331665352882226,27.867229107656286,-28.3654872979092
800.0,-5.719999955663608,6.6051564128810405,-2.9440014653369677,-25.802397435822957,-18.492707712250947,7.715690077086094
820.0,2.503964092272749,14.59132952886115,2.41398773449482,14.255065569878195,4.636329330654748,32.54472896044994
840.0,1.3842092549867409,8.920436861462774,1.4636512588576143,-5.190437424320389,13.753384050523204,-1.0965421406093252
860.0,-4.162504660496144,6.4194925891815044,-5.204696332708267,-6.003120592470279,-26.554080805016845,-28.908230522782837
880.0,5.256219154538151,12.762717796369614,2.9980132212342494,20.78285186337716,24.17006522070376,1.5848839734494842
900.0,-4.7747417680099815,8.102498856526527,1.0718380413022055,-27.786974022878063,-8.597764388582604,33.106002770068734
920.0,3.335450442056632,15.471818656868592,-0.9982517734652354,33.99926886327718,-8.918836187040498,7.818484698342537
940.0,-1.6946603974994006,2.3432205830122816,0.8657032320766861,-36.387694909614595,22.309827679679003,-27.81473625458236
960.0,1.1529904640568385,12.986227314496766,-4.139243578307853,29.260945294704953,-24.74752513961416,-10.535844135803039
980.0,-1.9258159017124181,9.227279260748467,3.2856514792539713,-21.724412905629965,5.379508500765382,25.03535267017721
1000.0,2.4847890221324116,12.368524795711593,2.192393050706442,10.185666975971367,7.791429866807468,13.42680890181537
1020.0,-2.1371858341647902,8.048856661710706,-4.6107143898041905,1.9566151365791447,-21.30252851384508,-29.546066366442286
1040.0,0.6418747281529976,6.0339349386220915,2.4667999687387687,-12.93555778813295,22.56312498050699,-18.023039773056894
1060.0,2.2239510290230493,15.425269635778864,0.05326080342802621,24.690384266256242,-13.159497686204876,19.87472150507922
1080.0,-5.080895005982012,6.8036961338420054,0.3711420343971485,-33.10069758392004,-7.620362709805203,20.08167038317911
1100.0,7.110049019988979,13.087148812766113,1.7209149435789726,38.56805446256088,23.77609508631283,-21.49123077853422
1120.0,-7.273894332083227,3.4189113324080354,-4.897059586055572,-32.68139407819782,-20.283534132114866,-26.436794368053377
1140.0,4.855866166333354,15.044481466132963,3.1172927446783754,26.1447462743829,14.07401763234326,17.328513115500257
1160.0,-1.3967961423048303,10.320075042000836,2.366871257460345,-14.845164952994038,6.1859768000830275,27.36274750355828
1180.0,-2.1720006683748494,9.131105909943434,-3.6832257781207884,4.07433111277878,-20.035647600954263,-13.950114902176704
1200.0,4.482607463640716,9.222109946379941,1.4241570648676216,6.2983268170538365,22.47047433091472,-29.665908428576028
1220.0,-4.708551258128766,7.683440654973005,-1.6818160804227855,-23.092668311096592,-16.908706870702584,8.455429047959756
1240.0,3.642443744526948,16.539335596996946,1.514358323418926,29.580591955723644,-1.886059274808892,28.67292679079099
1260.0,-2.630022343318827,4.208472538516204,2.4021703694043652,-36.13046531838975,22.53964719403657,-3.6007004782110643
1280.0,1.3601776027158652,11.998989286613153,-5.51517676490355,31.633988871603826,-23.05295223443529,-28.841740631647813
1300.0,-1.8281449375248517,6.313606814423797,2.73928033157848,-28.127788684522077,17.031595063510924,-0.34610433975120275
1320.0,2.7539265192853715,15.345486167578752,1.8463650160845708,20.74952712005037,-1.564343632029988,31.01907303835888
1340.0,-3.3797833309568848,8.783150884531409,-1.8232970613866588,-5.683594086977616,-15.975439622519996,3.7027899809399307
1360.0,2.5133740916488105,6.5694951921320355,1.7560060630569487,-5.237041613920278,25.1924824733181,-31.19700216075543
1380.0,-0.16995274909268937,11.787761786741896,-3.0417037857936573,19.833971599015655,-22.341885817228118,-9.288003558135868
1400.0,-2.990946181900256,7.942763636169196,2.0088246185924112,-26.265323707991023,0.9953375240252385,26.805769320077506
1420.0,5.891748959196321,15.542442453315946,2.793904306762243,33.294547122215334,19.514179197702802,10.566616078828005
1440.0,-7.621596222200306,2.610245630384478,-5.181359712636922,-38.920478259808306,-22.28193589596327,-25.37060483849001
1460.0,6.493602322913563,13.019925026350078,1.6246679506605592,30.999771837410243,18.843209729432733,-14.36186716309477
1480.0,-3.862348328589221,8.582008605458656,0.6722115198668538,-24.59667088287748,-3.822324989322915,24.07129549968052
1500.0,0.08618177573649473,13.269301930359186,-0.5451471944191738,11.685838425477343,-13.825741444813719,20.91441812997531
1520.0,2.6664222525020533,7.565577072386187,2.0438680180378412,-0.4038855350377495,29.490914145747727,-20.305463261139085
1540.0,-3.9232558690759616,6.409139022585691,-4.486524863801619,-9.436054379941151,-23.41590138483004,-19.49524941671284
1560.0,3.708434077665135,14.356235512365616,2.1494718801637074,24.031181876847995,7.613847892537498,17.395152162575524
1580.0,-2.8658630610826017,7.51167534719685,3.2486252853460544,-30.03387708799366,9.876898580134572,21.75475315670893
1600.0,1.8869332187392271,13.658467355486051,-4.227355499323894,30.9976402779913,-25.257637910722643,-13.2192261850748
1620.0,-2.0304113313950296,2.5740560858382824,1.1700595681481705,-33.64761081697548,24.744571321523082,-24.678972784640102
1640.0,2.6597788516760015,15.015732822629676,-0.3321109524862969,27.25086845535353,-4.751290690863521,12.33306694834075
1660.0,-3.641380895221389,9.658487837925405,1.0157160035927553,-21.570853491674203,-9.31214069156972,28.064070183481014
1680.0,4.207322704637561,10.200483355642264,2.7954703815014885,8.273939174381953,17.159798340815293,-5.150353571807882
1700.0,-2.318093116670477,8.178811681448275,-5.127452775985355,4.704658985723095,-21.378852413070657,-29.016961268517186
1720.0,-0.801536859098088,7.988939702462768,1.8026064163168993,-19.766293735684027,9.39469087614327,5.451877053954188
1740.0,4.169762677596774,16.001365935979774,2.9022215487310827,27.387052043254126,5.878759496048487,30.533513443442015
1760.0,-6.791604280715615,5.493961519890098,-2.8098787710948203,-32.82777438941311,-22.149009269798132,0.7776355019051608
1780.0,7.260748923536297,12.672014800292496,1.1427087310380193,34.583757487288636,25.433540277754503,-31.028341676345725
1800.0,-5.752753808927867,4.781792233751017,-2.0523908067369665,-31.724457372040472,-13.015207579693898,-5.028128827979076
1820.0,2.5854638514477792,15.732733000379946,1.0542192312380154,21.121815028730136,-4.986429107284282,27.435475658232324
1840.0,0.8496641960992433,8.95886431379458,3.6444787037346242,-11.040258799975831,19.778260765371442,15.227341823412743
1860.0,-3.00523560730826,7.574224142395108,-5.099158346107692,0.03715449492654532,-24.338628239243427,-28.318473397157252
1880.0,3.325823792204793,10.19082902425345,0.8323984287404764,11.854211356519063,14.48038834732957,-11.74384489600589
1900.0,-2.294989887486692,8.645978579454269,2.0725833936662807,-26.637791216252104,-0.5225013819033109,25.539770764471335
1920.0,1.9534870897099956,15.490101852394789,-1.3218935001948966,28.53735557991157,-18.774713057993203,18.737197804132148
1940.0,-1.5724637718290004,3.206412089762135,1.8827204390076628,-37.24063531229632,28.0644452831887,-21.49389504349481
1960.0,2.1802625621089127,13.042617290667767,-3.900058690695412,34.039931166511366,-12.696457125544658,-23.923179012021393
1980.0,-3.568124554454816,7.552419310995408,1.2544912355070788,-31.24122347560671,-2.3975123815745802,19.518469953223587
2000.0,4.520832172789636,14.229373716587114,4.042078571173418,17.89398160110244,19.246464793372905,21.22560737576285
2020.0,-3.5691098648715256,7.667875073747972,-4.614265075512917,-7.165411221458903,-23.694766597486943,-15.821218808157887
2040.0,1.1314280680011284,6.588314151618936,0.9219892845758868,-4.678766996514668,16.625168983473333,-28.942823573937808
2060.0,2.043569559007982,13.34032405628314,0.5163441257121146,19.69685955323811,0.6367457494879061,12.05994639649464
2080.0,-5.053512607069216,7.966405605712391,-0.22933780513149332,-30.058978677378718,-17.625104935004064,25.187409986966816
2100.0,6.969070650312544,14.023772020762566,2.8987432056038274,34.02146870108998,24.80189494269552,-7.288439603834774
2120.0,-6.761968557624062,2.206068721208191,-4.50152890948143,-37.16128558866801,-21.128674412029863,-29.183225366167985
2140.0,4.5148072079031785,14.912329101926899,0.7229299832382701,31.75137429300696,4.557673805155168,0.36914923446540726
2160.0,-1.143914590567948,9.184040045782258,4.010385876964252,-23.787247421425285,8.965160446565749,28.842108988843723
2180.0,-1.5732194790128688,11.650574516514062,-3.8985166989376445,13.503216031198114,-26.29563366802748,-1.9832012422584666
2200.0,2.6306225661586295,7.459301827405003,0.9109144051582311,-1.3759264744636595,22.24746621206127,-29.86436254116235
2220.0,-2.5365932727366243,7.504616447537828,-1.1628248584054102,-10.857842565631199,-7.480210114748675,-5.615613858912931
2240.0,1.653040117257432,15.651084416369738,0.5053166450079263,26.032750977144882,-15.140216686169786,26.615953757569493
2260.0,-1.1276759718169487,5.9781821439017175,3.9346464435119746,-32.7069731046712,24.283316684844834,9.829429957938608
2280.0,1.7469257145442432,12.510256348115417,-4.790888227926156,35.62813819430603,-21.71721760114409,-27.32199928684934
2300.0,-3.271921741571088,3.75145376215201,0.36643314576377073,-34.954534457200175,7.489654499514833,-11.925034338606794
2320.0,4.594390330487359,15.904687590794255,3.2383042259597254,26.70885648789546,11.529192426606839,24.11582505418378
2340.0,-5.109121512120934,9.019167605341767,-2.266178152042778,-19.724794555972903,-24.254979976931633,16.781229008128015
2360.0,3.5167647751930784,8.651850299286808,1.7538611947301774,8.928180627709988,25.954317229611316,-21.650950900901307
2380.0,0.15216473980360146,9.24216475061338,-2.9797195854284317,11.441698211466736,-4.827125819094664,-18.657995176961933
2400.0,-3.4822247940606204,8.706805189898416,0.09672235369953555,-22.03189570390039,-7.794032411606242,19.049237941793265
2420.0,6.747302087354786,16.303259729481496,5.012162168450268,29.699222913789004,18.97965214079068,24.791725675230875
2440.0,-7.223010557650411,3.520468548179307,-4.180842308709218,-35.176614875241505,-22.019125167177627,-16.33491413031807
2460.0,5.928443650645792,12.41722978594523,-0.24761760639343655,32.06996815004954,10.797918330456605,-27.429426096934968
2480.0,-3.1986569125967357,6.422179049310455,1.700096781167603,-29.99228239119597,3.2131239868513304,12.488885586839192
2500.0,0.25594361851246117,15.13316100406383,-0.798823772572755,20.119635481852608,-21.765232579492128,28.67689788309032
2520.0,1.4563208495387858,7.189697874410756,2.9978913104088463,-11.478514972670276,20.807009430391886,-11.8431967756541
2540.0,-2.0378060029441376,7.237982584787622,-4.329560508733277,-1.2634122796972909,-12.231739635883162,-25.27254083070379
2560.0,0.9775670613966307,11.900068147922227,-0.2862915430469131,14.841166165044987,-4.903502664886393,7.373056188314711
2580.0,-0.8781239032047667,8.773544611452433,4.853899100724636,-24.542826316808092,23.946229170180423,31.784426045236287
2600.0,0.895471987809833,14.406896553838287,-3.117178529185701,34.18493266369184,-28.002702695671612,1.2130475588720873
2620.0,-2.496675744502171,2.5368865984253888,0.6433665639201134,-36.83745813865505,21.505501332066856,-30.137270387559507
2640.0,4.396419443975775,14.210643249801473,-0.19740913075111383,32.62030268212337,-0.40197875579173337,-6.433418053418671
2660.0,-5.310991680110199,8.338804887953712,-0.5533569913492978,-24.30146590087015,-17.635813860259265,33.12777197031326
2680.0,5.147044249086129,12.975883892301209,4.228089053664121,14.397035794610705,24.570482701839538,8.998268557982964
2700.0,-3.002960474431704,7.098664713568214,-4.697409127998411,-6.586178771807351,-20.68726943727216,-32.11620585794369
2720.0,-0.7979090275902184,7.318755540061783,-0.596119189053668,-4.98070103089079,3.111077375568708,-13.009646807037804
2740.0,4.3755577825409135,15.097995554212176,3.869962828332518,20.17962756079292,19.140436283775372,29.509713456328242
2760.0,-6.7651826264016846,6.748999057380241,-2.07297175203208,-26.279643765434784,-24.72823056243651,16.40074664799622
2780.0,6.490846341928009,12.555588532417888,1.4490105614542519,32.31243587952825,22.190712652498593,-26.325988374745446
2800.0,-5.337293062560329,3.6604710945320376,-1.7673190015351734,-33.917659861058,-7.070926476917318,-22.851290295785475
2820.0,2.196484101780986,15.824337785345891,-0.20958423319335784,31.96322077512811,-15.808356092580446,23.20045216668779
2840.0,0.5058543117755453,8.698706219771788,5.195670946101424,-22.925125545249315,23.49285181561933,23.085415293276885
2860.0,-1.0254974576262479,9.51066359304217,-4.195205369101484,8.966699106611348,-20.062993001683797,-17.52361679905383
2880.0,1.124214641678443,7.96002403260336,-0.7264931494966401,2.4925299425645933,8.1374754328322,-24.488246529175903
2900.0,-0.4191865398973169,9.085842946201756,2.7920745821609825,-14.224925169080842,12.99496250751544,14.932948034457405
2920.0,0.3341741588255816,15.363421262034848,-1.5379595625137077,24.224116371012876,-23.081777564971485,28.349666634469624
2940.0,-1.4321844251866591,4.473333987340427,2.409042141226817,-32.69595025529508,22.257757778402716,-9.23315129431204
2960.0,3.5318772550506186,12.353558946639316,-2.9258267117183308,38.854707227696196,-6.442777352867076,-27.98987470135412
2980.0,-5.253983623264159,5.591829145787892,-0.9795380732528067,-33.91112309448895,-13.503003137547694,3.3987118154660734
3000.0,5.957201177443434,16.026547810939874,5.423298657070664,24.02787450485354,26.034241425813672,30.314973707706734
3020.0,-4.77963875872262,7.22614051373914,-3.16541513796323,-17.416206693410352,-22.706464356197905,-3.6804220380789694
3040.0,1.7291983452981985,7.389470860663285,-0.3021943804098245,0.6911959730182358,14.53572262289293,-27.778877922004625
3060.0,2.0286551378570974,10.885992784559598,1.280393773697196,11.463617797350908,7.341817932730005,-2.394493513801227
3080.0,-5.406854202525782,9.040265211858806,-1.1369916660499475,-21.50337226998279,-20.713753082232174,32.874532518934984
3100.0,6.829145884785607,14.830617495876822,3.79040163759693,28.384593764197,22.301534140889324,8.078503158660634
3120.0,-5.8295508249322445,2.5367033217177815,-3.484210073671376,-35.126547084805686,-11.586330745041318,-28.620484580394585
3140.0,3.5188576422002953,13.893908837342524,-1.5061579094159936,33.80524570638061,-6.828359695772757,-10.91907636650982
3160.0,-0.9735561337029264,8.360348372882667,4.7562247661726555,-29.608871305068366,23.647120564402577,26.764842844992383
3180.0,-0.5251036663819418,13.987567923392627,-2.649715952214426,24.481344505995615,-24.09104626804491,11.142577504728573
3200.0,0.9758477886033945,6.482498305938726,0.3559425999645487,-8.990280539326964,16.153870063987267,-24.07645712001717
3220.0,-0.6232753125563,7.700556143200876,-1.0122172635065592,-3.9077578024572026,4.127855352161424,-16.37193514735811
3240.0,-0.260433641520868,14.22850387949255,-1.0949271906075242,11.975609373687924,-18.523530679288363,24.618482683646555
3260.0,-0.17122946215459298,8.089746621212152,5.184112340116054,-25.946480428955745,24.496737064850755,19.734204712166164
3280.0,2.163921562079415,13.005497739444216,-3.8530843116621565,33.533732058120115,-19.811702501199672,-18.108630243639706
3300.0,-4.524538866899957,2.4664406159267935,-1.837247327335347,-34.4600489450954,-4.147989376614191,-24.562560008894234
3320.0,6.283289198887642,16.009283164560273,3.2815553232730057,30.75383105642772,16.844832148217684,16.929120447393732
3340.0,-6.442173656887889,8.097049796985507,-1.4676829551718003,-21.80652603086598,-27.26063621741982,26.390631435470183
3360.0,3.92461307788461,10.917205602000433,1.6565243214744338,15.70707133061989,18.19620367778949,-12.766352484130826
3380.0,-0.23790681853620224,7.12263511736899,-2.415696967107946,-0.1612956894178843,-0.4802244785822656,-30.618182652813854
3400.0,-3.3307617732004635,9.255686784538145,-1.804129046628511,-10.923829850772384,-23.575883225158563,9.487522804030805
3420.0,5.734739237926187,15.565278929406254,5.496822636095044,21.751811176540038,25.154701611672344,27.334985286172543
3440.0,-5.953578177728041,5.0408016866220065,-2.5960578333640147,-29.200873004691836,-16.88495850851022,-1.485398950484232
3460.0,5.3678125117009,12.309677193971476,-1.5764750602282116,34.873688406471146,5.968819848500813,-27.206733889088923
3480.0,-2.794076984584175,4.772300478275443,2.0778027126523595,-37.50121470877133,15.726424897491718,-2.2509700782310578
3500.0,1.093848420786842,16.372125410888383,-1.6145050941661245,30.919390022292518,-22.08776217642728,28.324123886518258
3520.0,0.08918336849753591,7.7915815563388815,3.337941511766569,-16.877309551046213,24.187506737371997,2.7527577167372312
3540.0,0.26007536108226553,8.535199308106177,-2.7440316805326845,7.910385693914848,-4.682558183307547,-28.891696706127632
3560.0,-0.8850679495346642,9.477335195558059,-2.2469056230260063,7.967490343692944,-14.84163041155146,-12.37428410770984
3580.0,0.6759531820838163,9.403206290092017,5.374499587440156,-16.902851726234772,25.336527608848336,30.54353031850867
3600.0,0.9403735547652634,14.745815296046702,-1.9545766150307946,28.91770264097904,-23.39155118127498,10.770682053114069
3620.0,-3.255833224228672,2.7944540154229403,-0.18197505208912546,-33.79952278817989,10.358369600548336,-26.118540487345932
3640.0,5.547128511215906,13.602159480294295,0.5337932452665834,35.31302414026157,12.001337007870124,-14.523668800319857
3660.0,-6.713880769681534,7.284046957354405,-1.5139355493944275,-32.48402966538183,-22.76293408927942,24.151674126400223
3680.0,5.941431564078225,15.205602500080708,4.748452988096666,27.7132421326364,23.263535352456383,20.44170609606524
3700.0,-3.1683189676387764,6.218278131382655,-2.51671022132491,-13.01173638380669,-10.613033641100678,-21.657428210776594
3720.0,-0.5403400447337121,8.207280668966353,-2.811011764860054,-0.8726061993281465,-7.305044443353752,-25.029956497867335
3740.0,4.140030832984822,12.504002184058512,4.160490093708551,11.401196520582467,21.033839350015956,18.280242609347734
3760.0,-6.22275222886375,8.494981373225357,-1.4937154375557766,-27.145827162960067,-25.488336149053506,24.92001972098214
3780.0,5.681362700930199,12.872592864102922,1.0477018180296547,33.37007701295849,14.240473570213638,-12.66123542730846
3800.0,-3.7777214146801588,2.4272751157080643,-1.3663110596490617,-34.18033272292814,8.579870236783105,-26.563500814870476
3820.0,1.6374771538032185,15.29485189157411,-2.2111042966169236,35.11843272029004,-20.718631762357916,7.958742426330642
3840.0,-0.6387122950711576,8.376495038583876,5.3337765304521945,-27.548247556985107,25.571148619620924,30.174743640696942
3860.0,0.7821424906463272,12.434053262359612,-2.19188591205309,21.652945185350344,-13.982629379314256,-8.18426013843866
3880.0,-1.5951962119045817,5.993998854443973,-2.683420297623179,-8.255759629710237,-2.5984360633354355,-30.351842417114263
3900.0,1.8061574011380952,8.99564144843164,2.8567195552448963,-7.5866932422819655,19.800268569345732,1.7506429018443201
3920.0,-0.7771229746802092,14.792796546904704,-1.613618860531056,15.805735347629758,-23.16401234433936,27.197791133396784
3940.0,-1.500029511879063,6.223860293294207,2.338971911031004,-26.175023559055422,14.828233075697975,4.171047202036861
3960.0,4.582898249117021,12.454886985331477,-1.865574016549669,30.639096117946238,2.0038264148546627,-32.474866094968924
3980.0,-6.525025650068142,3.9683151590091392,-2.918698090971949,-32.74124382693203,-15.990812073231648,-6.506476449775524
4000.0,7.051674472889709,16.791720725202087,5.477833189189094,33.40481123938426,27.507096139913195,27.383165547221402
4020.0,-5.204650668011192,7.691965804054766,-1.7863121330125602,-26.16821508738819,-18.696918306803575,13.597460143726972
4040.0,2.0149343434492333,9.45300289024608,-1.5603272885537864,14.853286091783305,4.519974483056802,-27.126185875950096
4060.0,1.8423291369218,8.726204417762686,1.197716921362062,0.32489518238317333,15.992365807666326,-17.46490199931682
4080.0,-4.68165744459948,10.45645890853642,-1.7503028528948514,-12.465310514546916,-25.233755938769043,21.54225380946567
4100.0,5.426342777200075,14.792357779266775,4.1760083129603665,23.090521922412456,21.604988329243344,18.12775390243991
4120.0,-4.302308391836631,3.6873865547390503,-2.2880084932705658,-30.824065560510384,-2.1489140970002323,-22.41900324913444
4140.0,2.454130779615397,13.01102337346312,-3.317222299212111,34.61512730916103,-13.56445943893579,-21.22692241891885
4160.0,-1.3444660925165721,6.551723668297624,4.623290117558846,-31.364274098850625,24.17897530940731,19.606917660076693
4180.0,0.9254769894661147,15.28545832336488,-1.3795539082184949,26.477827547561542,-18.596009003683918,23.451186432392976
4200.0,-1.6932810752553982,5.89390401461814,-0.19307355282631639,-18.320743118921452,5.496486604126188,-15.689897927082662
4220.0,2.1623338740167295,8.228531104234992,-0.04098427014405178,5.886641667297774,13.120464777740148,-25.709888378036386
4240.0,-2.0956896859031007,11.592467121809776,-2.6947804668217965,9.77313884358027,-26.66686214856082,10.920810058688035
4260.0,0.39603599028288916,9.561196321855384,4.889458031862032,-14.65253625055195,22.44057688516863,27.37659855746501
4280.0,2.9557385699116208,13.309369939551523,-1.825877551600336,29.2228716705747,-5.6661593707026,-2.6891992462538234
4300.0,-5.791443600677998,2.58785930838021,-3.3850823290161256,-32.843059018424476,-10.55703469107539,-27.869588997950057
4320.0,7.083593258964945,15.173546381143186,3.4110940919920107,33.13475913187406,23.25040429687674,1.5541118397464087
4340.0,-6.473180962635803,8.056644666844013,-1.317793279221085,-33.31571416895693,-23.009022492780232,28.254880833086574
4360.0,3.855868208990643,13.710251951199282,1.5897583214227582,24.952589597749927,11.112091515667906,2.6745969295477194
4380.0,-0.5821943490507229,5.70151264248727,-0.741831642640529,-10.330414615191385,7.019458540287795,-30.938416275976884
4400.0,-2.631865933590496,8.891623028669212,-3.486408496974887,-3.0822850473737513,-25.73568551265881,-8.369490591142444
4420.0,4.7119100448519555,14.076975958024748,5.484345737345984,14.876004359576793,26.902395603333105,29.379081375284734
4440.0,-4.644228552040046,7.525657177449651,-1.260086922821036,-23.6776184016583,-16.26207466835156,10.991827987026477
4460.0,3.284948233135074,12.17982461156303,-2.759574540106958,31.130417162403425,-5.730449095001525,-26.5572846958143
4480.0,-1.9995020454562817,3.3172964708653465,1.9078059741891196,-32.2706171412421,21.781980469111158,-13.54829019065113
4500.0,1.4711892236390574,16.805607656076976,-1.4697851417174874,30.481625509638782,-25.306500796441227,22.05417278393283
4520.0,-1.7806498459807594,7.789996030447274,3.4158016275730136,-28.84548551404845,13.85606583428146,19.261324474688195
4540.0,2.5835607989743163,10.331765797540651,-1.2361416075545621,17.331867689082,5.466260142465846,-21.545762395229318
4560.0,-2.755960279121506,7.240506175437435,-4.175856384175689,-6.74038363527121,-20.29310598794055,-19.75960986529018
4580.0,2.130991481545304,10.281571015736473,4.855850903312314,-9.554159922857224,25.216124894213312,17.075997641805234
4600.0,0.5450877005801836,14.784884911715897,-0.7907210920760444,15.354501936132937,-13.543600300089182,24.64564686966345
4620.0,-3.732129739674946,4.277471137646529,-1.1526860652784479,-27.729761353625033,-1.3157165914388262,-18.819512326910225
4640.0,6.605856480471925,12.200694511812971,0.8912158335577698,33.3673004863528,20.458754122899272,-25.731953813604168
4660.0,-7.534877090499809,5.856113813149558,-2.6722934808228125,-32.27764268927306,-25.826453140017133,7.870980865707399
4680.0,6.234520627796337,16.74108722758835,4.321111055767973,29.842380465440463,21.235322173705036,25.493378285503894
4700.0,-2.6830154807769437,6.042680740982955,-1.3030366006520668,-22.52464706765794,0.15174885183102416,-7.993727729072703
4720.0,-1.047155405726184,9.20682212734722,-4.086854474693639,9.653658495578181,-16.224888432438224,-28.492986340927523
4740.0,3.2905422990831115,10.097274078024107,3.6493832848436583,2.0248035311821613,23.299942527933197,7.777172611236759
4760.0,-4.533897539642338,9.843110043692972,-0.7317517820691053,-15.242399054169539,-17.796882172811227,31.266934601273636
4780.0,3.795916678197548,13.337527232143394,0.5913128162016952,28.085734237607266,3.8978940850023305,-0.7905024329430482
4800.0,-2.7073179369222125,2.5845153303300408,-0.0864857977092173,-31.897212274477088,15.269105296371865,-29.004140061839113
4820.0,1.5074809099060804,14.549401382516132,-3.7860635725792746,34.68789764976669,-23.208559920633277,-4.476818841229267
4840.0,-1.4773178167876604,7.636898269003618,5.079885294588687,-34.14679448771077,22.53640563464035,28.85097861926159
4860.0,2.881131859193576,14.19875215787312,-0.18119282856268387,26.596043026152,-2.116367673749737,4.637914440605012
4880.0,-3.5573595783522745,5.089602471837702,-3.8300427657377876,-15.964344654835001,-14.245961655362384,-28.8257387980119
4900.0,2.994581340416099,9.210143229931424,2.4209360266002284,2.158442138821303,24.86406151903574,-12.454330160673946
4920.0,-2.019270830303324,13.346720384783072,-1.2783753306765047,11.387896216260899,-25.374694320104048,25.946819144011766
4940.0,-1.982354413937968,8.067245834521211,2.101042095858671,-20.237961024093405,10.741125717962241,16.353624569023243
4960.0,4.897818194973126,11.934896103667636,-0.11370131530358486,30.662014824232013,8.37363558308514,-24.446457432435892
4980.0,-7.208122442588876,3.222608914395313,-4.331086408390648,-32.186599318041424,-24.787600687428046,-18.43180164959375
5000.0,7.267133968773055,16.233384374854904,4.570735411689188,33.19664547058665,23.26333491300491,23.131121903970573
5020.0,-5.054108716896384,7.148003421176039,-0.1181838895766093,-29.759940857495103,-12.577301295520352,22.9185022904566
5040.0,1.727898575854657,11.497751941201221,-2.026646222267324,21.43515194664382,-8.898864619385702,-16.26531080112687
5060.0,1.422354221147629,6.065220740130344,1.4644109174176942,-11.013948746747738,23.37225489781927,-24.046876107035697
5080.0,-3.0403671509971986,10.566418284210574,-2.4256366060803067,-3.450805985414703,-24.101572752829235,16.05547035954912
5100.0,3.8019116680209413,14.518088538130106,3.7018869074404432,17.458277626324143,11.972477109274383,27.905517183163777
5120.0,-2.504427979997887,5.452337864731506,0.6468801243284693,-24.158204889918913,6.822889374698184,-13.378727672895042
5140.0,1.8312797825248084,11.920403264999187,-4.608369007802076,35.575736061727305,-17.156469420207554,-26.777819608633322
5160.0,-1.932570977827148,5.367298944102413,3.7785911768783125,-37.22615645887009,21.584789857855593,6.229319287592445
5180.0,2.3370719750560123,16.988352114917195,-0.1318530603022089,32.740026838340235,-10.394398259899237,28.427127332332564
5200.0,-3.6427614147720506,6.579367230639911,-0.5225329994574186,-22.450406896998576,-3.9951031977098292,1.6503757421146716
5220.0,4.643810251345885,9.344251627972923,0.36886781595515944,13.023026241367562,21.89704780708501,-27.970716462237924
5240.0,-3.005542882345872,9.27824006707598,-4.0092787466085165,-1.0669335037123082,-25.76887756832297,-2.454329511541717
5260.0,0.3220314854896358,11.034805465073621,4.095788605890779,-10.010394998169739,14.593444551763232,31.289814576709265
5280.0,2.996400378946991,13.771409838754469,0.793943718773485,19.922896547676995,-3.1896320372683404,8.992717091795518
5300.0,-5.944705079793003,3.3501851153217044,-4.605292902830196,-33.00565420089968,-18.6337500426344,-30.88613810812018
5320.0,7.393565946462265,13.443124697078593,2.3812255355355445,34.99767858993209,25.668476791748624,-11.153205700122065
5340.0,-6.310495541141462,7.0495143551248285,-0.7859437792652018,-34.692394691715414,-16.11714154134728,25.929421559438268
5360.0,4.28645337431048,15.722464135891741,1.1582978922505929,26.294861742142594,1.9843568769238042,16.18541939879983
5380.0,-0.32714466377074713,4.892724242349276,0.6007925433375361,-19.7847576335471,17.05520215220815,-22.441856941757862
5400.0,-1.8667797542059348,9.371854684046173,-4.5794208468717414,11.10944073286725,-24.06477785577476,-16.144535678478086
5420.0,2.758448579231591,12.375846488227404,4.323925451179851,5.905558954361153,22.289161652040363,21.612885967054524
5440.0,-2.4348506846525404,9.744513685967823,0.889271450502028,-20.513214196889077,-0.15679877813419285,22.171951986486498
5460.0,1.7896710001324259,12.080452266464164,-3.4674265763352956,29.33702420033164,-14.611888041241784,-16.637942469655815
5480.0,-1.0523983792435443,3.4652621734174955,1.9686042364035614,-33.09423217647722,21.46996462955402,-26.73467072938732
5500.0,2.157221115670197,15.961693481260395,-1.7781050005671772,37.93173184047512,-22.05294181753143,11.671070828743645
5520.0,-3.130160393245542,7.388729778279325,2.4324619494731032,-31.935241957986396,7.913265956569449,28.58948060587945
5540.0,4.878972993807422,12.236578021859893,1.1779610455614202,23.61410642930967,12.455326951219725,-9.427599516161088
5560.0,-4.488649807122426,5.580381034226036,-5.291672951163325,-15.096612610209917,-26.597192155304317,-28.418040477584984
5580.0,2.9814440691389312,10.60198916165132,3.6165774209367663,0.8659663732023255,23.003339172564406,9.996011409624359
5600.0,0.6697940260751813,13.857680589253581,0.8865090536303527,10.105409965102506,-8.772265313239004,28.613145939757473
5620.0,-4.2278075308611704,6.479965202858056,-1.8034106642181846,-22.419576477613447,-14.170537576217967,-4.326972039085058
5640.0,6.743726633952413,11.869848267166589,1.2613943337197182,31.359254684673946,23.802817770762736,-31.81232213979389
5660.0,-6.969726965036271,4.784828008992952,-3.290399826449614,-34.54314585978087,-26.194501956057486,-4.216259379989534
5680.0,5.846719747831069,17.380022779015917,3.22116462049176,33.96973777873064,11.188298409509812,30.141813573332705
5700.0,-2.8276932937928088,6.21911126995704,1.1939670911706937,-21.776352057796068,11.50628260507177,5.642396287628096
5720.0,-0.015941102801667495,10.451951631687947,-4.782182958697914,19.94539585567731,-22.341900588141204,-28.92561132312332
5740.0,2.2508170544768356,8.271573142373242,2.744068046919584,-5.495982672456707,25.073593594380366,-14.106425257862643
5760.0,-2.1562822608496557,11.337183257110667,0.1407941366155559,-7.834988520360218,-11.933927419891878,28.732596811269723
5780.0,1.5100943516833132,13.643039500739693,0.27927510914387976,17.943964194914756,-9.181174987109904,12.741834512891606
5800.0,-0.9397220709883755,3.949635765104807,1.0454996098046387,-31.491278706116237,23.15496618884054,-24.146501543884145
5820.0,1.5601299487445144,12.91546741395037,-5.028162819184678,30.403281084675427,-26.067061350985387,-16.689598952047163
5840.0,-2.6982178747790893,6.550084144729591,3.6093740724460566,-32.10524183203941,9.922038214648015,21.109286903223936
5860.0,4.657331022383155,16.22514319745634,2.2278210770691556,31.050270208160537,5.594530061663509,22.086073396789462
5880.0,-5.24946169942105,4.778186892516021,-4.212129620622508,-25.128806693796328,-19.445216018817433,-18.6676198446411
5900.0,4.526967936244688,9.455879780385821,1.5869640698263483,14.24010774564851,25.160031818452758,-27.597089807656822
5920.0,-2.0688236533566267,10.87348970455095,-1.1527533835709156,1.479635997110787,-17.415693452873032,19.616552609311558
5940.0,-1.9866509400708838,10.209836888421352,2.043958509613838,-17.83962056030292,-3.9838915193823237,28.114152033608946
5960.0,5.587370986285886,12.144646803162406,1.860254892808504,22.534161926276465,18.058631317921176,-12.479576550333043
5980.0,-6.7864066178923235,2.6788839580428885,-5.532445764567935,-31.99086248095919,-25.3467718278847,-33.21208147944639
6000.0,6.768543901185776,15.553487840742564,2.9561225742258372,31.08975537479304,16.360604265082557,8.278871576607047
6020.0,-4.6442063900373345,7.790534322221371,1.823977220742635,-34.54741786621983,-0.8868893494245857,30.169166900922033
6040.0,1.450555391805771,13.472976938693183,-3.0402110989605036,25.881865490901948,-15.930539098447252,-4.518254769780557
6060.0,0.8373999328791432,4.751258763178866,1.2751732723116511,-16.20749617871328,25.408114360931375,-33.38675483427822
6080.0,-1.708474845604302,10.499515452831677,-2.875097879387877,5.3965047474989865,-19.828228410148853,-1.3973030841401803
6100.0,1.118293223413057,13.253778158478536,2.457742268557654,5.8679706526561874,5.157802373756875,29.272573621985284
6120.0,-0.7631669125958542,7.571095921528432,2.20395110821078,-17.47962642110005,13.958737028389251,2.210835529189445
6140.0,0.9318005256288906,11.654376300181257,-5.45348839012829,30.23250390585483,-23.764982628550637,-29.25245536335316
6160.0,-1.6709391087666345,4.0661580650780005,2.0350895256661485,-31.628643925001874,23.047769158481117,-7.639017788261249
6180.0,3.8453782909474774,16.94744619164633,1.1035322312875793,34.10738991066058,-7.170457949291481,24.92009950901928
6200.0,-5.222650347268209,6.538520020495015,-0.6474454824649752,-32.28473633494372,-11.219468590810674,13.707353531547085
6220.0,5.98082931964732,10.88173114105087,1.8416450388956978,22.792815523397632,22.9915711437565,-27.224061625809384
6240.0,-3.947440442069524,6.504938264747251,-4.36466909254124,-9.245050564720048,-19.49659719559284,-19.103546745169844
6260.0,0.9350664085032568,11.496587801649623,2.6943771716662215,0.23297581350114638,6.302951598695847,24.29026046248805
6280.0,3.0405744433821886,13.61458093296725,3.0613798943256345,10.50648745881635,11.548343022791714,20.892845752776726
6300.0,-6.067614979025018,4.3875667754259,-4.761499517558855,-24.22432370180685,-22.686737971374566,-19.91859302466075
6320.0,6.829048492133965,12.014466845381685,1.7411320132389005,31.601093667640363,20.196050721115412,-24.232383824179095
6340.0,-5.530860023117234,6.315428119641172,-1.0246619290215415,-34.1017781841808,-10.65380749535567,17.182773109994187
6360.0,3.311507448865925,16.325689948484786,0.5345412178047348,35.110536368043185,-8.20176098126425,25.460146975829023
6380.0,-0.6305284291824904,4.903695841597031,2.615406562927515,-28.78099598427675,22.47865054822657,-13.968850180478123
6400.0,-0.5646743738353484,10.04947896724905,-5.310297903851883,19.843291712284156,-22.209187293375855,-25.924113281578997
6420.0,0.7908074531889994,9.765236204073098,2.424883391320564,-5.573265340020441,11.52308003029341,4.679674224734241
6440.0,-0.31599988351280434,10.727265930352466,2.937750381798174,-6.235034629763951,6.323867514022194,28.564088689820576
6460.0,0.1207712310000397,12.196146351206606,-3.3000070436459343,22.520564945990937,-23.953190391914053,-5.379971313030462
6480.0,-0.6126271672983068,3.2320787983955235,1.2949758338564785,-25.505681874431666,24.42351850518993,-30.906721017800574
6500.0,2.415349225875873,14.458426525535737,-1.8622845187689843,36.730371493431285,-16.118686249020875,-1.2908094216441823
6520.0,-5.113127872028204,6.860637510638405,1.289438520918301,-33.902303420465834,-5.915976591015495,26.270760284124975
6540.0,6.285960329487738,14.941892715053092,3.0243729727402,33.20765012723896,18.923198089378165,3.16194124360732
6560.0,-5.643277871266212,4.496916571436181,-5.72301256898431,-25.011996564669065,-20.77332829483128,-24.824611519838207
6580.0,3.152832516010029,10.850666229328542,1.8781227037692085,11.758029218311444,17.938574751916004,-10.98576343445479
6600.0,0.5461240781894741,12.763977337835906,2.1249648488433834,2.368873434001937,2.4003238741825177,24.630912857153504
6620.0,-4.012665911437334,8.619754008247718,-1.7139799400310993,-20.16638855966363,-19.95921524151787,7.974696310067674
6640.0,6.256854799519567,10.922724233476234,1.8678127795371482,23.84924322852829,25.56974821737184,-26.437162709202568
6660.0,-6.316729725418075,3.949343849048222,-3.624196620935192,-32.100129215005694,-19.84423392069529,-16.013985074456027
6680.0,4.768951231769537,17.08764544526226,1.5737287721348723,33.26291645688661,-3.7456033795409676,20.777206866410456
6700.0,-2.127020676215526,6.8312521195279245,3.52715400739585,-34.079017856953136,19.011080090079822,18.54256816190645
6720.0,0.4106705136561369,11.934151408083148,-5.1403719282628675,26.863674109535168,-24.36321104271768,-22.767546575387563
6740.0,0.08444700190156454,5.627072258141308,0.9227277822718059,-14.86686292716551,19.467948352239155,-20.757801499630617
6760.0,0.24831648321654437,12.17796716779997,0.7716734886499784,4.9736189501900085,-1.5723423419389746,16.120179557946006
6780.0,-0.7980968447270776,13.03953425268221,-0.5874972871481394,7.902196368205246,-20.404356783127184,25.907296324326605
6800.0,0.3854317644150327,5.3830987813437625,2.235703842316953,-23.21507016329225,23.11694966059805,-14.110210301211366
6820.0,1.3786843654585725,11.765942113611546,-4.448732177517983,28.725778238015927,-21.663839633876343,-26.38550972105497
6840.0,-3.8238899312752213,5.7307929666115935,1.1869726063895132,-34.553568559134895,-1.4243559757166668,8.94024015579365
6860.0,5.998417059073498,17.17828256286568,3.892440410777481,33.03377213221373,16.097604892651773,28.561400618232597
6880.0,-6.749496824854228,4.830288954323764,-3.9277949026896795,-30.977089617424948,-26.57494111805123,-4.508491472713676
6900.0,5.679684472213195,10.336970738499103,1.0951690258614069,23.090089225660698,21.805576495705875,-29.63030852423569
6920.0,-2.711824241181454,8.657145433970069,-0.8005037829380217,-7.442158274906095,-8.823266909886184,3.3681968704748884
6940.0,-1.8763725899915251,11.927263742092332,0.02804544157841682,-4.069620271991314,-14.133202367578553,28.31609101750141
6960.0,4.9918226205735134,12.089125335978451,3.6443183112960096,11.251172423359531,22.40637880594726,0.813545316749936
6980.0,-5.966924068163654,3.719797544359162,-5.111724270803203,-28.33533603683616,-22.542563115262762,-29.490139636029728
7000.0,5.6460081577408125,13.959949805196647,1.0131066349398026,32.8125465494575,10.794329094597963,-3.9759545515400587
7020.0,-3.5230283947584606,7.085217641879231,3.228898308463298,-37.612624886214014,8.959100174769391,28.569539243844748
7040.0,1.443273167328258,15.200357131165507,-2.245731037151855,30.991988664543832,-22.072702708129018,9.149430942979027
7060.0,-0.6907972883167462,4.1553119667693394,1.6710705314461058,-26.3992529618791,23.77926611449053,-28.13457209582001
7080.0,0.5789790627880872,10.507485362646653,-2.7130816197637024,18.069307758035396,-11.256988025675259,-12.560251186253057
7100.0,-0.7152419997851491,11.310334963992865,0.8752563984619675,2.425118840691622,-3.759312750567315,24.879113020318844
7120.0,1.1805335253393439,9.761449505754145,4.013261638683701,-7.9624547004880775,20.94079552685822,17.488529903335003
7140.0,0.07225399424513271,10.930471619433389,-4.59799462106071,19.343271978655125,-25.870044907992973,-25.496547298912258
7160.0,-1.9583824948129382,4.040703484441444,0.9333153978866602,-30.30034229753371,13.55025848919789,-21.310276748186503
7180.0,5.308550570739362,16.21656560057892,1.6077691656106012,35.76121229218426,8.824896907836727,24.027547915026247
7200.0,-6.865601666483685,7.182342973262844,-1.017380386509032,-32.618832620588115,-20.222999854192416,24.379479096562093
7220.0,6.830480330842854,12.891227047207789,2.427696761413182,32.07836900853047,21.171913875401668,-16.676209919669112
7240.0,-4.168604533646728,4.73558079212556,-3.9837143334638734,-18.434372658102063,-16.568880972976782,-30.26299344336642
7260.0,0.8176574202727134,12.086351855016456,0.6197459710678078,8.275325689405694,0.32164792923943764,10.52509380076792
7280.0,2.62695664633144,12.964693843105213,4.548767592766422,2.0531142433270486,19.07764545475962,26.54877314798206
7300.0,-5.347002052691546,6.641314262942203,-4.158355965056417,-16.357190515869426,-28.821607291854047,-10.870730887444276
7320.0,5.6716836324315905,11.050467156483755,0.39132688101649193,28.9645920269096,15.857116645104416,-32.57135863461457
7340.0,-4.24230490102927,5.2816151403289,0.7333220443659878,-35.75509590845331,-1.1211087406234364,4.169335157915068
7360.0,2.316541868534617,17.40060305608787,-0.7371303829882901,32.38012409557592,-17.737879501967775,31.44445457246205
7380.0,-1.1630180869269522,5.30934729692346,3.5201748974965743,-31.937437559724273,24.673290865713906,1.3215943136990445
7400.0,0.8803379996852172,10.883195653181753,-4.223085374871709,25.06471162484489,-20.510382065054472,-30.737402965971295
7420.0,-1.2919651965841785,7.0874293644922615,0.14242757824679708,-12.911452849945423,1.4049232935323337,-4.833704835431863
7440.0,2.3003207676173907,12.80872565156009,4.095919333630322,0.5722244447607339,13.01312524896257,26.821614974831824
7460.0,-1.6791760852866862,12.073863195792084,-2.7433021893051803,9.052557096558704,-27.46209915557019,8.99872921675947
7480.0,-0.2567757684332763,4.430872865792779,1.2132612397792015,-25.85312762726633,18.82700691094945,-22.08619801650619
7500.0,3.0175012222859743,12.974698426470074,-1.7457353967810216,31.91083883983647,-4.292370947250413,-13.25843269012198
7520.0,-6.145332472820094,7.108841622342505,-0.07993972813932111,-35.77637158356745,-8.85181261177068,22.789605540881773
7540.0,7.129055856353658,16.263999663284864,4.844236825463158,32.69149877716681,25.320941706457987,14.136380134494491
7560.0,-5.880536800127047,3.515157742981548,-4.484892292350538,-29.570338473727823,-20.782329774439855,-24.50786362433672
7580.0,3.5107462528765203,11.111555806975442,-0.442911898480737,20.404234928445625,4.532300568544565,-20.48251457950845
7600.0,0.16451964901320829,10.213313774452757,3.180428390368462,-12.571223964940383,13.869099923217785,22.38603241145983
7620.0,-3.591905806967685,10.599118909962169,-1.39092796316113,-3.068152500247629,-24.061832970510256,19.9183075167715
7640.0,4.917033307304706,10.957227367883663,2.0933737496477547,15.042193187070158,27.821066947779983,-19.476079153040207
7660.0,-4.599603012419517,3.7211692958998106,-3.088969414440683,-28.26741813126501,-12.91013804627369,-23.28804801718178
7680.0,3.2671209607010967,15.584184628118411,-0.19707118569807233,29.66851455416758,-8.75468753800136,14.085624694146034
7700.0,-1.3813612198697067,7.408888371289909,4.9273190892575665,-31.155136153950348,19.480395354068236,28.699034980716014
7720.0,1.3773270190737685,13.527584793050426,-4.056336640598142,29.955497476162012,-26.436213372150252,-9.746700889007839
7740.0,-1.780258275265546,4.375942326528649,0.12607650126002223,-24.60493094606334,12.979149016797122,-29.281906888353916
7760.0,3.1004870825885167,12.112667201553496,1.6907382185262596,13.089934576005682,4.695080551235562,9.529237721426238
7780.0,-2.9858975257620175,12.140468639959296,-0.899884784622723,-2.202912152583689,-21.888662642823796,31.266592531787197
7800.0,1.2849713570161985,8.064749380781127,3.4676643886007814,-12.021793773514892,27.449014018687464,3.3305275699551773
7820.0,1.453554457687578,10.63504214597026,-3.9766223094313125,23.733982500848327,-16.406851889775147,-28.876009337696996
7840.0,-4.4462004300681155,4.988184844216999,-1.2197162016067609,-31.439179789715883,0.22028896346827764,-1.8192274272805984
7860.0,6.808804245177981,17.193000071888513,4.850926568764261,37.09882312994748,17.973812188182993,23.216810403377284
7880.0,-7.234477915271015,5.290274135582437,-2.9484565358319843,-32.55372543922315,-25.11295932549851,7.384082051965763
7900.0,5.4459933613003395,11.407603488488208,0.3226869097615283,22.9829808494512,17.74738351437439,-25.993564051425622
7920.0,-1.987597663964786,6.252168421699717,-0.1634790035438804,-16.163432669380015,2.374833751769274,-13.017037269905213
7940.0,-1.6701539299009727,13.199997741650472,-0.7250797873987946,4.173563026150015,-17.601692363761675,31.74728560528373
7960.0,3.51418095668405,12.130746797167294,4.52656296175751,-0.27677486491868386,22.98876045190729,17.170868601557867
7980.0,-4.726316464125983,5.05995580908763,-4.045835489934262,-17.44646057215289,-17.56231266205388,-24.247285387518883
8000.0,3.723441695945794,12.050635862819496,-1.30870065557018,27.919953908609692,0.9472886841241464,-19.632759347971554
8020.0,-2.4953709980088323,6.662604251360322,4.120239824206946,-31.13876729278869,18.03341714638553,23.776238089158447
8040.0,1.7385875587083979,16.80966100877979,-2.111475328191571,35.109410528331686,-23.71207050733126,23.741537589336083
8060.0,-1.812759207874949,3.7790747818718886,1.1705587296592321,-31.11688864077551,22.85418333680748,-18.678476373934043
8080.0,2.6549664064927256,10.99984674487585,-2.179151349711328,24.90714975195613,-4.856404518383913,-22.689939293177286
8100.0,-3.0208469320465974,9.21263743456076,-1.0508547278048879,-16.143995254983615,-16.319672663928227,14.649713417446742
8120.0,3.055323201169037,12.260767279111978,5.422421640109863,-0.8479746283944216,26.652092580996992,24.9368353567119
8140.0,-0.7422411368864882,10.73528732409559,-3.6010875904778197,13.28254245704077,-18.518308912061304,-11.902499168300452
8160.0,-2.4914869238427153,3.961516687102145,-1.2084847230164133,-22.53244188040769,5.103075410835566,-30.777523703911154
8180.0,5.666192540259861,14.937334162559969,2.5803874870180534,29.121732024858705,11.730628496819877,4.5176279503285635
8200.0,-6.819870810404003,7.439601892793866,-1.673596771841337,-35.687516869026396,-23.351435187298446,30.545436913177664
8220.0,7.2680604741024615,14.270019497616937,2.5615638399195757,36.52179707463063,21.437410815279826,-3.472710936870757
8240.0,-4.474955799279825,3.3547434842912707,-2.971277837751963,-26.182596162601595,-10.006252746546341,-29.70558536327968
8260.0,0.9651164669664368,12.38395034417125,-1.5764397821032512,15.325785522257265,-12.368684871106465,-2.596406075983713
8280.0,1.9600266392292094,11.58688013064454,5.064771688482307,-7.249738618260592,21.94525388630252,31.031272239880618
8300.0,-3.754747853737397,9.491522040793692,-2.9593510370661193,-7.9665017169087,-20.304125882470355,7.222958938039689
8320.0,3.5091638929280875,10.131818507062608,-0.5607128717303207,18.38727275436963,10.338312471172099,-27.662986438025925
8340.0,-2.6272388424713506,4.890728982146342,1.3488636033353516,-29.49863950105313,7.168103691584571,-9.659797284364021
8360.0,1.6326497382942577,16.933464625690444,-1.1161936287743632,33.51025943147011,-19.6218111466275,25.973767792697448
8380.0,-1.5547873134045966,5.832390298261058,4.461578342153336,-35.987468861672006,23.90037295050664,16.050196426054207
8400.0,2.7865795401331304,11.986171398220728,-3.7170676240773632,26.946573708365143,-13.353488928969119,-28.215234547219694
8420.0,-3.639228034528707,4.919982615304594,-1.9084861516652414,-22.543848745734863,-8.085214237200507,-16.947156107198765
8440.0,4.355866665650511,13.509580444577383,4.639837679082299,10.738611724281819,14.798997946935305,21.845838091614517
8460.0,-2.8523700207783036,11.5154277842515,-1.9938238957816863,2.7074765673236434,-23.852824375133284,20.87194969093567
8480.0,-0.28629434254682345,6.091494427985721,0.66978330167332,-11.860089271589104,12.411596095107244,-25.109849005690904
8500.0,3.702621280651963,11.299086999691706,-0.8418376403858113,27.069451722242054,6.762738292321251,-25.106140808935113
8520.0,-6.486893425257269,6.655317543671169,-1.6566322766310912,-31.415435057045897,-18.554367977051605,15.165799985047506
8540.0,7.622018990805085,17.075302930621785,4.8265515299686435,38.70965847828874,24.017006983767924,26.25357760637333
8560.0,-6.195966609182614,4.386130221402334,-2.9273656922038276,-33.94504079304817,-17.63169484607531,-12.810954012903478
8580.0,3.0673227001555237,11.338917579144253,-2.3899869525842687,25.64764907804334,-6.75933595075679,-29.642745427138752
8600.0,0.1715877693567915,8.02772360595858,3.07371380314754,-15.044455724785323,15.734264477547875,10.657068655512738
8620.0,-2.4478846980893176,12.59415899768806,-1.6084204706477192,3.6218256157189117,-25.050639050424305,31.954632933224975
8640.0,3.1545677430808023,10.802323701139196,2.2630214226646594,8.677139471823553,17.58967901490475,-1.8104391406112832
8660.0,-2.773639996300333,4.227453044655927,-1.8469039835590428,-19.635321502361695,-1.4732457689084333,-31.706756948833487
8680.0,1.4018104666401845,13.957069940922473,-2.3073067272728696,30.10519987928807,-17.17589983631787,-1.9916581009322756
8700.0,-1.1000051047054467,7.697288582678016,5.715654375819507,-32.40361743923445,25.02198878732679,29.117817755027612
8720.0,1.9767349758741897,14.717415081040414,-2.720854378928618,35.61726266973122,-18.833893072431547,4.52230634852343
8740.0,-3.41918802479842,3.2136022609659,-1.2125452542835256,-30.364218841181664,2.271995895873522,-28.623111542933543
8760.0,4.226372495574564,12.168741970966664,1.5119893602978918,20.50415629188564,16.418884932243355,-8.877423578170749
8780.0,-3.9553800073410224,10.60763766171766,-1.5628758217589656,-8.736054287721457,-25.214346227200082,29.687483100862664
8800.0,2.2064105383867734,10.864344584888372,3.4584697394538892,-4.32235413845028,20.934396380642138,12.843636608295554
8820.0,1.47548230975477,9.986819299817704,-2.4917244672534964,15.053091233467866,-8.551275542508467,-26.255858975927097
8840.0,-4.709234116968647,4.62646586446689,-2.860658120534799,-23.82664167278933,-13.821662838671406,-18.8695326464936
8860.0,7.4516453501040765,16.214015539853488,4.981137471764353,31.40447880359007,26.2363602913869,20.608347411445926
8880.0,-7.135433813291517,6.674094277394573,-1.3331194543887288,-35.21997956720853,-20.0966647473969,15.831496710605839
8900.0,5.126789204745232,12.488865053105979,0.028450210543209564,34.05768553483117,4.339750143732818,-20.26073859878048
8920.0,-1.788738180532341,4.415213160327941,-0.11968846232183755,-25.420678797933324,10.576054150195816,-25.363709458012593
8940.0,-0.8764512115974972,13.782293776986467,-2.3935630417599856,14.229499388320841,-22.508546314041162,15.394974823814952
8960.0,2.1435706480138403,11.46419911889869,5.178889380275511,-3.815061406443035,20.219609739513583,24.830005125929883
8980.0,-2.3820248048279202,7.492309948419128,-2.3088685271495026,-8.095240070972388,-7.6643850107004585,-14.472521404421993
9000.0,1.5075078159221882,10.745072890434313,-3.4103588549068227,22.54106014811233,-6.48858371415607,-25.933797168269177
9020.0,-1.3993218895967212,6.397742778809072,3.7299017020356793,-35.16823383553375,21.290988662782503,13.688125830892444
9040.0,1.4511915128867106,16.869575825412507,-1.425696102137387,37.124874047496604,-29.138827463276037,29.492144227202516
9060.0,-2.7302166437906568,4.232024100103896,1.1579976043690074,-36.1924134524897,12.52947596213359,-6.445592155292533
9080.0,4.595415562665884,11.731482160261892,-1.213870076781121,26.954043790524747,6.227721824720668,-27.854773151605503
9100.0,-5.239963894945281,6.874190107263468,-2.7139661553614722,-22.93425928859111,-22.46060919336314,-2.5695318267473715
9120.0,4.2195839665450245,13.48076478199042,5.205526099400749,10.453856420610808,24.3330219007796,29.896530533793715
9140.0,-0.9559546983036957,10.272266759394187,-1.4848710538518999,4.024077847303989,-15.212434697408764,2.2499967276540773
9160.0,-2.5104887451403193,5.083106202687562,-2.8359172926501657,-18.518793989438848,-4.892265202171716,-31.729364358068366
9180.0,5.602864595775775,12.961696205649476,2.3130610360841692,25.348501913838216,22.826243384228835,-5.309578591332892
9200.0,-7.081707493736529,7.303413014358932,-1.2930128256943323,-29.17255766669162,-28.581226087419868,31.354077082745338
9220.0,6.527672709890896,15.694835419488461,2.795499554816302,34.79714610452015,14.354730454536213,11.558242491640987
9240.0,-4.10495184256124,3.026279854685022,-1.5069439830001303,-36.91107648251516,1.7014058805324928,-29.700824467141988
9260.0,1.034530122458915,11.822960795288324,-3.580690302262335,25.76885755358777,-15.015749213726238,-11.909597577646249
9280.0,1.383078785011182,9.674592764181194,5.0351239500849925,-17.68674286842971,24.680049211500286,24.31540609062777
9300.0,-1.742843593634971,12.024526311688982,-1.2478259338605944,3.365120931785466,-17.756704257466176,19.37891844410669
9320.0,1.6723194368410923,9.439076512952722,-1.1739797443738733,13.42836372905688,2.6133947799798842,-27.003304617952868
9340.0,-0.7769235462957849,4.906479734416013,0.9532352840254622,-24.778141788856953,17.510262030684366,-22.130002057926323
9360.0,0.9401522322694028,15.819214575162674,-2.104693214899716,30.497204191879703,-20.334985148690883,19.054135699313807
9380.0,-2.213060892267743,7.108178064686926,4.486395481217626,-36.97357441348444,18.891328901386157,22.59321600950811
9400.0,3.9085239087756305,13.679137650543604,-1.5100566249355531,33.61785216824559,-4.826255270728549,-15.335089050599471
9420.0,-5.658399414204943,3.3005793467539037,-3.807679604750313,-31.53389216249301,-16.938377424277252,-29.68459258966768
9440.0,5.660727189654749,13.574145758828344,4.148064806037603,21.15820275510354,23.837784256965385,10.085305376049066
9460.0,-3.294925360051143,10.982963318798319,-0.653447476550052,-7.661399263416212,-22.594483462911754,29.69531389570539
9480.0,-0.005300075931106034,8.638908947196166,0.23035069971202232,-0.9257041571409488,8.436846125202742,-6.996692661838928
9500.0,3.9107510534778167,10.134261890729167,-0.11047921035222268,17.343021206820083,11.682668824068053,-29.496662031907942
9520.0,-6.319639134399069,6.20085326440398,-3.0995352266147256,-30.152831821385995,-21.807683768843773,3.286476284137751
9540.0,7.122096975815383,16.980112816277288,5.179422486618473,30.96423007389398,24.927187550625042,30.083700022549074
9560.0,-5.384120345241336,4.951490171048546,-0.7080693276500687,-37.14280873347549,-6.459036097261754,0.3635190265871764
9580.0,2.602448872042534,11.839025208064376,-3.5640670027396832,31.792378836093672,-11.69176287626593,-27.846180770903192
9600.0,-0.3704267223659736,5.71182086380626,2.8353393393128203,-20.43602764660597,22.564373596637765,-5.915022584439122
9620.0,-1.0797325854416668,14.081148662050541,-1.201342715629865,16.807653480532263,-21.535264865602137,32.97459523812359
9640.0,0.8818155759782829,10.281791517164471,2.324645930410611,-2.3850687294214667,11.424358462144598,9.002906332160697
9660.0,-0.4946665454843156,5.81037758100185,-0.2551245367689383,-11.813142480618362,8.80377013176402,-25.64425198750876
9680.0,0.3530886223001217,11.702001570454362,-4.269493046944611,18.476458176487373,-23.797155583315305,-12.942339561453736
9700.0,-1.1260053846131601,7.5876883124345715,5.384569901726934,-30.06552962948191,18.786462706505862,28.146653823728627
9720.0,3.2307193135875836,15.940081173170347,-0.5971253114402968,36.713391769870896,-12.514454148881335,13.029766293874516
9740.0,-5.0020420819788205,3.191900661812243,-2.2505463368184553,-30.103659899707377,-6.36729046605381,-23.516517881133385
9760.0,6.270158777307945,12.179474641738556,1.4930292564717729,24.61176104111673,21.35500389746662,-20.840620006147454
9780.0,-5.558919344790142,8.70086527264163,-2.1744029064877193,-15.562499189757391,-23.506534727369875,18.026503089037636
9800.0,2.7040824425013006,13.053191903547091,3.4463959027506896,4.528999863417193,13.953571144553587,23.386792705358296
9820.0,1.410450676723853,8.946859543360134,-0.22190443754601116,7.751290785455626,6.609889503231976,-16.348461612177815
9840.0,-4.519606333470284,5.057819932366538,-4.331315407888453,-20.40206726487076,-19.998373222251555,-26.00426748098724
9860.0,6.4938306077655366,14.738541581857051,4.5472648488232466,27.180170314015463,24.178759372374003,10.38338008628682
9880.0,-6.332840424592606,7.689571064720179,-0.16718448499557098,-31.647403336175188,-15.643208676161938,27.517248893977325
9900.0,3.702072340427394,14.335442177300997,-0.9059843709382442,35.40632359234744,-2.4789696099633574,-5.7693254877910825
9920.0,-1.8430125074605719,3.0565102883520727,0.9336213334036652,-28.935641284236684,16.146066432964517,-28.24691633893381
9940.0,0.16316870928001415,13.222136710814818,-2.966059948976324,25.564026604805623,-24.200496616857958,4.3187242522085185
9960.0,0.5291279594513295,10.501234393499105,4.219564279995044,-13.861798513900785,20.42965055648782,29.072783150647197
9980.0,0.3123300966224577,9.930307784929647,-0.23349758229998874,2.6721542664274827,-1.3012171615038108,-0.722162345124629
