timestamp,ax,ay,az,gx,gy,gz
0.0,-0.05348564815025415,9.432385883744297,0.10710168037278252,0.26823815821172076,-2.1220925217851736,-0.43690768093629706
20.0,-0.4191949598087935,9.006687856730496,-4.499367402548837,14.766001767053456,-18.495307212221473,-32.55080967283958
40.0,-0.036521889394813746,5.95944969665098,3.180738893893984,-25.61784103060573,22.908524135202704,-3.6381212154276747
60.0,1.484671115469498,16.754330510974746,-0.8384972449895705,32.590726057908746,-15.516759260949524,29.558659251360474
80.0,-4.470189357649257,5.426159534030408,1.19683074167872,-36.38331602865107,0.864127812847344,9.38657595955204
100.0,6.1687251708328334,12.379038184522264,0.4505498379600019,32.143616902742416,14.699896473279502,-31.492726847705228
120.0,-6.78648027713739,4.767289877111951,-4.534010068432984,-26.551549735327303,-24.381460233160688,-14.334264484204583
140.0,4.991426312837316,14.513128203009874,4.881905358880041,19.887118316373677,20.363532410564265,27.48939827608382
160.0,-1.5794676850579916,10.345581703902452,0.32597476471648196,-6.43188237884847,-7.65974844054468,15.99202717283151
180.0,-2.720941524789198,7.017632224034574,-3.463375272096336,-6.34067432207453,-17.50339267652803,-23.619116563850977
200.0,5.497349417336349,11.176924076637222,1.6503533747820693,15.08769868640601,23.45317938343837,-23.093495068450004
220.0,-6.189461075447025,7.408223073451286,-1.5860610724861806,-31.521802847354095,-21.688195159397075,19.093285331596444
240.0,4.7039445580869,16.608257806594086,2.1458678294384357,32.64222774019491,7.971756581327593,24.977970298235682
260.0,-2.828685471975491,3.541460230953331,0.3145573219738194,-38.75374019691532,12.6049776999587,-19.266455551062663
280.0,1.5511901732631577,12.133329154177297,-4.841232236544645,28.84912318630166,-23.59346824283283,-24.75128472491139
300.0,-0.2128473306287034,7.866017152209006,3.9446171314734007,-23.148870987921992,23.297553695595905,13.982552906571337
320.0,0.002418966119972943,13.579126155161005,0.44690331845315995,10.180475885244942,-10.14905109639641,24.990726112123543
340.0,-1.243438384751281,8.991087551295312,-1.9058168649809806,2.7750154319078373,-8.996607307495845,-7.836658321887824
360.0,0.8141973727452746,5.453790182203402,1.1405538039941068,-14.588948503729782,23.88533852066613,-29.07259501751676
380.0,0.13671179788383317,13.710765505384346,-2.8563636721794676,25.997326917385926,-21.49439098584903,1.0996246420754696
400.0,-2.5745004756504146,7.997241389704286,3.62802402246328,-34.11439268908189,10.738559228285185,27.436906849326043
420.0,5.5558610169937195,14.842999965921795,0.9504965485042262,33.27511080983691,4.467803954003385,-0.33139481676032556
440.0,-6.817784074624395,2.6145324001866035,-5.151869247020368,-33.20326016181505,-21.165319332284753,-31.854066590156762
460.0,6.47362442704031,13.651969173321367,3.0538782763844075,25.644479268775267,23.252533985318202,-4.272358530015698
480.0,-3.9841872021547102,9.612116514989953,0.05174319073361345,-19.972833568115373,-12.06094674822568,31.195818860032272
500.0,-0.045078959004069885,11.167730832876787,-0.570555675460645,7.8279354107672985,-4.681356056615086,5.391545444972179
520.0,3.873019155081686,8.297782915736036,1.04818236506734,8.29069854017389,21.958976824815274,-26.557677264617677
540.0,-5.500392064407403,5.882897090043462,-4.0871184114779595,-17.847425386381897,-22.337068695421266,-10.726062239084024
560.0,5.148523726257653,16.09038074962997,4.03923290815594,24.336837221308365,10.799654996729249,27.115421755316643
580.0,-4.065836345852433,6.001067121685662,1.0040405263550072,-32.993175828414046,3.8912550575036313,16.43045788869202
600.0,1.7343521802729416,12.992934719103959,-4.271166241572272,34.847871254384806,-19.762069962714545,-22.725783378015006
620.0,-1.0266748691353937,3.790320269164118,2.114597687612693,-31.63133880587194,27.888270381046553,-19.61396986585718
640.0,0.8095132353373111,14.547537124106926,-1.0406165611388591,22.63325647778738,-14.747272283145163,21.41116040668991
660.0,-1.3374971585534765,9.803113763839473,1.5847706357470976,-7.972163176091748,-1.7302705254668111,24.467157906430252
680.0,1.2017268387840694,8.140353835650744,1.2409559574970757,-3.6554157673617844,17.466754846793446,-19.13878362982523
700.0,-0.8574198417114687,9.990824040798996,-5.147768670042608,11.588361991863305,-26.446336986119242,-26.01197431007254
720.0,-0.9638622822152001,7.46465195735556,3.8748377416053223,-28.703772030727443,16.371650697522508,13.542276845766782
740.0,4.013076803833766,17.072327424180965,1.1270608629843708,32.15125973319474,-4.443261084404522,23.884492758991506
760.0,-6.38383364066227,3.6710591499866596,-2.710286906462182,-33.77688700560148,-14.13554960370514,-9.612922222235712
780.0,7.028544345628147,12.351925261121663,1.7079395179168535,34.736522699922475,25.0753351585074,-29.09703201050125
800.0,-5.567744344280534,6.772054262040778,-2.1172168987521323,-28.08837564052062,-17.584195314930746,1.7577111002079748
820.0,2.7497403527943556,14.24759110519115,2.8114215885459894,15.944585166655186,3.5173249055227718,35.0556357378779
840.0,1.547638330820958,9.191377386516454,2.018244375684083,-2.3852324113630052,12.382997570577391,-0.3518626432759202
860.0,-4.09198465379095,5.734973853488095,-5.430888920752251,-5.985943355359094,-20.616207184248324,-29.68977701467046
880.0,5.315125715212008,12.93996262874305,2.7408314854509337,20.91734495436006,21.905538395099008,-1.9781675023632785
900.0,-5.080610062089233,8.382512407150493,0.9486643691634666,-30.312355613661538,-7.558415410374361,31.446597261310906
920.0,3.060432060929278,14.949509715757024,-1.0620393674983588,35.95325236309088,-15.476006660331993,4.8470445127752475
940.0,-1.6799785888471026,2.5886618993016195,1.5100896952374459,-35.41819433987401,21.719074525163297,-28.759075422918755
960.0,0.9033493891219988,13.431981171510452,-3.6174805347935797,29.2754099922373,-22.285385761370645,-11.621336535055436
980.0,-1.5691352247295234,9.161541947780243,2.98629860192681,-22.52686300983421,6.753172897073151,27.382164683300005
1000.0,2.0734554932193814,12.172923827694527,2.107016466374943,12.952736656368629,12.236782040611706,11.928713401858984
1020.0,-1.8475254040989402,8.082203704170828,-4.929107570156109,3.576888061636878,-21.96895278067862,-23.410788596385693
1040.0,0.7934561587997078,6.034329452988381,2.0450408600435375,-16.316610212078483,23.147425345934185,-16.799740889510446
1060.0,1.8142148525745792,15.189597289062721,0.21865208155544857,23.425933568050763,-10.326274440376285,23.76739264133513
1080.0,-5.381292926829036,6.924790026784417,0.6657658118661669,-30.625853840156864,-6.94763794695105,17.551047796161686
1100.0,6.95709848727819,13.823790989886508,1.7608626779736716,38.75509284414104,21.79153342098384,-15.927365964813276
1120.0,-7.204380483766767,3.1140605426701113,-5.092784552343183,-32.70957706097078,-25.942091242730527,-26.83680498837173
1140.0,5.009142643853385,14.796255242056397,3.23136331137045,31.628792882293997,12.325922725122684,20.618264310243823
1160.0,-1.362361051453762,10.067509796362522,2.651078250170156,-12.827545046275532,0.5055093024644659,25.658229901219087
1180.0,-1.8617008990391513,9.018909917961647,-3.6781427572269947,3.926648853624578,-18.44184438328538,-13.922404636539417
1200.0,4.002752580900929,9.081208228205508,1.6896554224492246,13.026618211285339,25.529526209554124,-28.71898313265376
1220.0,-4.473946602664918,7.468408381654014,-1.638809899863754,-22.226958518057813,-13.114806745212691,10.475393987127742
1240.0,3.6502843990221843,16.493414512850038,1.7428818588539696,31.9085517107248,-1.3790767857087005,28.642077292222826
1260.0,-1.9842453366383062,4.372268129440478,2.085793058950421,-35.201656161315945,21.207901242907518,-3.7666911202404183
1280.0,1.566718847054854,12.005946354740727,-5.616647455883416,35.02642159060312,-26.422593303774022,-26.99300043892247
1300.0,-2.0942113103183733,5.604192776507125,2.249462073173633,-25.180438069432704,15.236308743343885,2.4929728063694734
1320.0,2.636710408719452,15.53340014111856,2.295912562243319,19.04145160275415,2.7848808309971083,29.595524850067452
1340.0,-3.4177296356725693,8.706745635109105,-2.402116251560228,-6.249703873856071,-17.50544466443105,5.759621093477567
1360.0,2.2524283388566526,6.7931419503186365,1.5232822914724964,-3.4283221938594,24.91447127268038,-29.046908031752636
1380.0,0.24074031097413795,11.656529992959188,-2.6362645203808257,15.251332449563773,-17.860777321369167,-7.5524756526039205
1400.0,-3.2351974815937066,8.191649764247655,2.327811734695567,-27.975175748171136,3.0810956065488586,26.779526824200346
1420.0,6.106223501636008,15.467135498031356,2.809030449652644,35.694344318827476,15.635418313177444,11.893119735816654
1440.0,-7.204105697299135,3.1551565509556907,-5.118405156729342,-33.546763405888115,-20.549349077459652,-25.814568213815015
1460.0,6.415211670842223,13.1205610032459,1.7660378692437755,31.95994695630054,21.035004975457205,-12.851175155602366
1480.0,-4.00725879981223,8.29042716259044,0.9445272648660147,-24.362317949031326,-6.76086310860121,25.08893550802398
1500.0,0.04829313368109994,13.492889513348661,-0.5887365292513571,13.516880168246953,-12.183520371934621,19.180156256298275
1520.0,2.9144899293929694,8.273322916338184,2.3513923882747805,-0.6436861577760431,26.813079699572974,-22.502379960830606
1540.0,-3.817682014531074,6.6978258567509785,-4.600215538942106,-11.110462615641033,-21.755528563231877,-22.52691012841308
1560.0,3.7664849031526537,14.617597629107893,2.3635969902470464,21.308244491086008,6.1393694075737155,19.802485172115283
1580.0,-2.615809157211653,7.578171395905831,3.3845082071659878,-32.85880807740846,11.32756208505539,25.77207119337546
1600.0,1.2440550835302808,13.268918591365807,-4.310936762374273,37.01554988113197,-21.702950659334775,-17.257219680126365
1620.0,-1.5045896900051807,3.0654573954365945,1.3379058810649211,-32.73588966111849,26.537765561823306,-29.617293790927366
1640.0,2.9827455868874124,14.93146453165541,-0.619321324179045,29.382759175304173,-10.291379827870749,9.874873447047689
1660.0,-3.7390889106409153,9.407492955592064,0.8567950800796613,-23.147247743642268,-10.108260292677599,28.668729242616948
1680.0,3.7069620840658914,10.250501028703642,2.8452250551014657,7.417252205959835,24.928840593603947,-6.40040819875543
1700.0,-1.6160722028608951,7.993773698693836,-5.332495454826197,5.5783532287095055,-23.42149701091552,-31.686358443057916
1720.0,-0.9865016043929801,7.542320807935594,1.534082488221821,-15.458000194743907,11.052308111697753,0.366762789916677
1740.0,4.221113771677839,16.28962584673821,3.121694854754126,24.756609409156678,6.556364507703883,30.209673054481993
1760.0,-7.084140641467344,4.961299915338617,-3.142104295327929,-35.98680841303195,-22.552220146757858,1.6208503532039296
1780.0,7.249342293031351,12.15498702214621,1.3230522340991153,36.59114087853996,22.417628468941224,-28.56381928869632
1800.0,-5.481535940803379,4.44672358648927,-2.3622551684973456,-30.03644554969152,-12.319316511934408,-9.261770216036776
1820.0,2.5531238661857762,15.595043578543084,1.2322609316933966,23.675794503742885,-4.524779122652435,28.3796585453909
1840.0,0.7135202113461402,9.014376030517676,3.7923651463900927,-12.178258533898749,21.144933313166455,10.572536715473095
1860.0,-3.139472016202633,7.8978063334960975,-5.279862143762223,-1.7985915397581327,-23.323240830565663,-26.25802539428463
1880.0,3.494138358224016,10.59913970273918,0.8391881926032406,13.572879375410364,12.897615508143424,-14.946398227775063
1900.0,-2.358204915228925,8.38071155265874,1.813402606137791,-26.135520262228983,4.416763031731625,24.953784241974958
1920.0,1.8646069261317544,15.962812615030339,-1.5471433044422203,33.099059497171375,-20.147665105789216,16.645719684852736
1940.0,-1.1884220535187313,2.963174539531677,2.2558914840546263,-31.595614266753675,23.480628217909487,-24.748286572110402
1960.0,2.1215045291370624,12.999527447748775,-3.5429797541980483,34.225680610726435,-18.60942565332449,-21.63569791573352
1980.0,-3.1653737693188155,7.357170130234628,1.1155624736373289,-32.34148042400008,3.822161661196039,17.76762844198628
2000.0,4.466381149491636,14.111925533081031,4.0048222145977865,19.055242839949635,15.360777230723428,27.31470521794713
2020.0,-4.038081684262416,7.416470612920836,-4.499968747525881,-6.795344966333569,-24.081678916982984,-11.124506729384827
2040.0,1.5389610792230277,6.686585820742922,0.6583458587106629,-5.731126149763882,18.920550749434522,-30.39668549100762
2060.0,2.07405323992915,13.313713565081587,0.6774363428108666,18.86710803371005,-4.61929743682071,9.340334346263258
2080.0,-5.336084131156792,8.097176596656253,-0.11452407752999497,-29.96709095156048,-17.51772435489954,28.861775307743923
2100.0,7.704398770506553,14.081882725102497,3.1097621035437384,35.95332051918894,21.984272716358255,-5.449632433447176
2120.0,-7.025720401386199,2.723485013710272,-4.822534580433695,-35.142058397425956,-21.456242452658348,-31.928370058683047
2140.0,4.570886791709884,14.700279679495143,0.8904146085753626,33.460592269296896,1.9598339445092714,3.2967013805574132
2160.0,-1.2718896110994498,9.031470683378853,4.24984722612821,-23.936524597301336,12.913015638645714,30.55664447550019
2180.0,-1.3781920058314725,11.553307796007019,-3.3208448831887516,14.542430715417474,-24.48119827887261,-1.3209533630543875
2200.0,2.5093506378591504,7.153841304444378,0.9465948914679284,5.420570772702056,23.786832843647474,-28.550405380880534
2220.0,-2.647739479508677,7.31458585555466,-1.5778085699192332,-14.806392189369584,-6.034874315614403,-5.7314585667214555
2240.0,1.2712555830384438,15.691643646892016,0.5160836364149997,25.03709056596587,-12.329920958787717,27.260734694458897
2260.0,-1.2704379987079717,6.486931849255333,3.993433749134018,-32.150424178990896,18.656686159874393,8.291356477665833
2280.0,1.6639792132387734,12.617643701503095,-5.200236584765653,38.57710602868887,-24.217571472391406,-31.18206216313279
2300.0,-2.90899195357794,3.599818022449311,0.6094828776246272,-35.313496932553285,6.674530165847484,-11.750862378392542
2320.0,4.430292050890726,15.603727786049786,3.2910521812168776,25.722940896698002,8.363149415301377,26.19849385393052
2340.0,-5.100061148432008,8.627080295936146,-1.9508535343857378,-15.544858636847472,-21.580918604736862,19.122485072805727
2360.0,3.6519564535972484,8.946558931013685,1.7572784725443467,5.279307027483632,24.393209719949443,-23.018834770382544
2380.0,-0.483634058296509,9.275727959171418,-3.3482429949862875,10.945284492715976,-10.333516411659511,-21.122365203183506
2400.0,-3.669703865513578,8.755106853279516,0.6405404999616133,-17.915336188560623,-7.351292029543326,17.483386297874304
2420.0,6.468238333551556,15.728820296375067,4.648189621022944,27.475049387906672,20.709785434684886,27.962165897009683
2440.0,-7.301623883778948,3.5986949021335164,-4.674168586825279,-31.99200294862291,-21.405135444802777,-13.50575924801667
2460.0,6.1276219894461885,12.511535538210312,-0.2329710340957849,36.73196524979417,13.748437138819057,-29.138791254028103
2480.0,-3.3409236212114446,6.593716441068406,1.8516849769238706,-32.18813204129457,5.135308334729465,13.323368495693162
2500.0,0.28520625012836043,15.528729260878828,-1.1694144343370658,20.836285250823337,-18.194162708580148,27.489252557551456
2520.0,1.7033268125917582,7.545560735051763,2.742949324426644,-11.852037868746134,23.16751429726589,-7.621176888412747
2540.0,-1.795376073967522,7.58165364703104,-3.8839748923196824,-2.272103394686773,-15.418792256068704,-32.95164845568952
2560.0,1.393515088334069,12.50455542118846,-0.24828747056370465,13.764357385061139,-5.203169152206634,3.833275684901914
2580.0,-0.7059491374038317,8.991926138694286,4.8072701082688996,-24.12937123358711,17.702311508935924,34.792028712572574
2600.0,1.2203472363549321,14.227397797100865,-3.2787329179137,29.730362980613904,-25.988303074439873,-1.0952531364182683
2620.0,-2.628219971175218,2.1924172206542463,0.12217678771434598,-32.44327184554938,18.210480566168492,-27.9808409592899
2640.0,4.2650767233991616,14.088824443746974,0.018446079128592086,33.27551617927119,0.9051683980882245,-6.336504884906857
2660.0,-5.432881327810045,8.685219246280857,-0.7357512847956547,-27.743432079189425,-18.177543070816316,31.530461192816972
2680.0,5.042636667470846,13.00457513754661,3.9928170920890054,15.54865566698796,19.27033985605072,10.302419233967292
2700.0,-2.554189165496842,6.762153190261539,-4.293594514807996,-1.9541818973577767,-17.387838336949574,-26.957730193926512
2720.0,-0.8698308230600106,7.515178401184706,-0.8573345793657019,-11.30127369063187,1.8690606729839465,-11.02666082164557
2740.0,4.361004123920986,14.838087855354884,4.273483156589352,19.33657167379234,17.850015537891835,27.441677149688147
2760.0,-6.704385955222806,7.4443617034713,-2.7216016979894446,-31.780622225196943,-24.81763658579869,13.034942513693112
2780.0,6.74929766326403,12.5201237193803,0.8496866506277306,35.281633145505836,21.60295889639799,-24.017360871153485
2800.0,-4.460479631074452,3.505041829480695,-1.8102154659505247,-36.87130760434313,-1.8552636885826814,-20.36748345209487
2820.0,1.7644779738105252,15.467384103310568,-0.05080102307670564,30.992424778718327,-14.14378017179418,21.555773023740514
2840.0,0.6925170929640716,8.40109612984469,4.893676572359319,-20.69563540684563,26.005916944492046,22.800937909450763
2860.0,-0.9149291860857792,9.597589557782136,-4.138232765810889,11.96934671830675,-17.875200822276295,-15.662057687564264
2880.0,1.0924944024869097,8.239313348887165,-1.149104035920161,5.446827524330635,6.026884874839022,-21.58403884053579
2900.0,-0.4364467688590114,8.962828413056814,2.6767912928883613,-12.787121298168795,13.963473980763183,10.944106894584463
2920.0,0.5875733387002516,15.904722290361288,-1.3672848554867134,25.788517645530774,-25.35076766676952,24.14400380233066
2940.0,-1.4634997859565226,4.4506219024489555,2.1916720176339615,-32.85307606954678,23.564115542312784,-5.834497773339442
2960.0,3.5644019475260063,12.136151948139236,-2.9394076578294213,32.05159019612663,-11.861723072919327,-28.66989680273203
2980.0,-5.057983820536912,5.621389412695214,-1.196884192340857,-30.151508126048885,-9.215475510725367,7.722044502269198
3000.0,6.050815166838155,16.259643937839048,5.348718431696377,25.301230191006148,22.78059145767676,28.903836709593897
3020.0,-4.739289649656417,7.451031395599082,-3.2790631709493585,-12.09081209351125,-23.614338856800632,-0.8875853025613765
3040.0,1.7258628178315425,7.832467397427591,-0.1917561946775288,3.3050651166922176,9.420823858330374,-33.03072412872146
3060.0,2.374062092940654,10.634157560310985,1.0255307130230709,12.190210260332833,8.76605668112107,-2.7683573607392087
3080.0,-5.61790470294405,9.065902192279438,-0.7862888636699943,-25.02796971323722,-20.770862808972147,29.451855014522437
3100.0,6.811907282255644,14.643575582646367,3.9267469042933913,26.303963328469973,25.548606683220303,5.437092151161748
3120.0,-6.092846418912907,2.5762298179202903,-3.5822416913565602,-33.19636385151822,-11.501193401425919,-28.147633036067198
3140.0,3.348852679555537,13.519080364235586,-1.5473942172811708,35.09643150593124,-2.167419096647213,-8.300883600397112
3160.0,-1.4758302149351998,8.34880913422031,4.593449520997449,-29.703084326192574,19.706861218146962,27.530984816830077
3180.0,-0.4589614302687902,13.9201851221377,-2.2274198108820067,19.934417801455993,-26.453569842039627,11.14817721091864
3200.0,0.6504574767438489,7.1341658874102105,0.4695890124705155,-11.705503197110696,11.74642438152713,-24.10349846369166
3220.0,-0.017382248788184063,7.538926255074957,-0.7643248949546041,-6.2032196436346725,4.851409674743077,-17.013321182072772
3240.0,-0.17501866688906859,13.887140633869492,-1.013374231697095,14.54995034614781,-21.72279658160511,23.289650879726533
3260.0,-0.20394234557372534,7.871816977898855,4.926173648878011,-27.249060571614013,24.672338768803257,24.038917506542536
3280.0,2.1494570386374585,12.74232618116145,-3.608844097561737,35.05176958573522,-15.143722575425588,-18.95111573044108
3300.0,-4.152585771624177,2.7599303438011122,-1.5897559601349416,-33.5563115129245,0.4235665629832672,-27.909760287720626
3320.0,6.401407593337463,15.56307193583262,3.5705676242177358,34.50210297216616,17.398561364274276,13.750362515052306
3340.0,-6.159718053814941,8.522065845327488,-1.996090097108953,-26.575467170818097,-25.207068349560476,27.654135306597965
3360.0,3.89175881879167,10.81977856299445,1.6136072052916681,16.424481784858703,19.35973402596336,-13.26979438747411
3380.0,-0.5473731778178078,7.116164386017331,-1.9765858958408224,-5.9872879538734285,-0.7184557772953951,-26.717800285021408
3400.0,-3.30255424225963,8.980643483959835,-1.737952945352521,-11.169844701960903,-17.336687306267255,0.6986124625554879
3420.0,5.796850580730213,15.015595722263527,5.328782879507719,23.137921613635637,26.475470374611664,29.93755036361407
3440.0,-6.530695574435173,5.131603996746687,-2.82055604132873,-28.065959459390637,-20.186519924373304,-4.703503421817197
3460.0,4.829509083741876,12.217921696737767,-1.646315467387773,37.18585301937045,3.023354637285983,-32.97941229307938
3480.0,-2.4901351214596845,4.683367928817806,2.009144698585908,-37.51264869203842,11.156218058953659,-2.362394124146652
3500.0,0.5078507051094556,16.86504271476736,-1.5680667176600331,25.303874948242242,-27.442420854838034,31.999584575827352
3520.0,-0.03483479182900281,7.410641650290778,3.8131601424194606,-18.675989687607373,18.29064804164786,3.56505701149212
3540.0,0.4181541397036025,8.237366328020762,-2.7254474717164983,7.472863492761938,-4.418192961210697,-30.50844185185538
3560.0,-1.1804491249713365,9.893898927874096,-2.602376422148679,7.662315836818159,-11.693571136622085,-11.435969168878625
3580.0,0.8582152947591484,9.476336656915471,5.416908211646179,-18.382902866042954,24.123824985609172,28.70692445289633
3600.0,0.7882099392297063,14.518650139899123,-2.1651843278538205,26.753614465823553,-20.228674891367515,12.986357048449527
3620.0,-2.8866616373043708,2.993268849262882,-0.4624188640745436,-35.06233901282482,6.579643112407659,-27.148906935339603
3640.0,5.950065872255702,13.164364561416985,-0.06616677072725635,33.57954284109838,10.843911177577738,-15.413595083174991
3660.0,-6.751259637920815,7.45862538376351,-1.6329904111699873,-33.90042007849073,-27.397306675458104,24.288512627483794
3680.0,5.9623382593880265,15.292712840184295,4.627176396909762,24.59689069689495,24.083739000757173,18.915071620955853
3700.0,-3.3974935336567285,6.178299624776569,-2.952366719713915,-13.888141018923097,-14.150151751584104,-20.400940601186655
3720.0,-0.8968721659786124,8.157777880154132,-2.453815592732117,-0.4019997843329196,-6.338934440002323,-25.23689975260395
3740.0,4.0917933408999945,12.998056506301646,4.3152125591752295,14.784171290227565,21.889598979485257,17.704960003645994
3760.0,-6.074992785246822,8.49155569940711,-1.8359609557249656,-24.46398676493243,-24.08178098152767,26.9096521059402
3780.0,5.670301099743661,13.083822850236185,0.7652085370846105,30.39562613263466,10.128835229082412,-11.747509847051234
3800.0,-3.822511616317895,2.6288134580767926,-0.9248009492417472,-35.37676098720125,5.267705826442358,-25.875362417349788
3820.0,2.149881392807523,15.493302407223181,-2.2393252814238105,33.367111100134935,-21.20342288721438,7.609870871698726
3840.0,-0.9778560499506946,8.39219940810368,5.5808888923913464,-26.898637159438675,24.46531677939443,25.896687494810344
3860.0,0.6904091792415845,12.060788971755594,-2.9162381038131033,18.580693767806792,-14.65647021779765,-3.158814492835834
3880.0,-1.2869735392743922,6.363751193105318,-2.352002392369083,-4.094417963089795,-2.7389240467529072,-29.571468762118062
3900.0,1.7660012612845495,8.822070899287633,2.718749825345052,-6.554528595204396,19.768983435365435,1.763841562903675
3920.0,-0.6575293290852484,15.017890620143122,-1.538872734664348,16.623492047893677,-26.641571120660924,32.5319145043537
3940.0,-1.8072987281501436,6.1177520968773225,2.5505159073819748,-23.58227593438236,18.963832798340558,4.406951856776285
3960.0,4.695409657472936,12.067081229599934,-1.9626309492275225,34.26768032820644,-0.5536438055383495,-30.88947148966016
3980.0,-6.999487666762269,4.365946738893414,-3.0026120444051716,-35.169411024949284,-19.041437409024926,-6.852812636642069
4000.0,6.894608430934543,16.502889947883865,5.299124756078492,30.433728043257755,25.17872101512997,27.667993240012102
4020.0,-4.732330480179162,7.3731996733843985,-1.8947043319201295,-26.289680325929375,-19.756387793120695,12.384762386794273
4040.0,1.7013591107835686,9.24290324272982,-1.5088756497541922,15.976889551866016,1.6909653395059312,-29.060709583964105
4060.0,2.0100598913649623,8.769369591015172,1.4612400087473698,1.1569600698521785,19.06665801175103,-16.431107387718555
4080.0,-4.33351807685137,10.021360663345021,-1.7219367850556277,-13.88982190202571,-23.835226889355724,24.670238197376506
4100.0,5.284383299780673,14.69929324125028,4.260756933296723,20.83763228141342,17.827367431375457,22.19866292631052
4120.0,-4.449067486109045,3.5821058182217187,-2.121224324015685,-32.94542478809614,-5.367406569226221,-21.14700435840845
4140.0,2.480205768420699,12.790849352142416,-3.6256007373637265,32.627766732888254,-14.91644253432854,-23.09114503358282
4160.0,-1.8691477732490458,6.9525435478720095,4.570635746449507,-32.52633407449498,26.02365934229954,17.895976442226704
4180.0,0.7873528711219304,15.630392306672924,-1.3481699240716847,24.55124517336366,-18.895874702573316,23.439031977242948
4200.0,-1.428889431308357,6.099926691422056,-0.017045548569368324,-17.411094718875717,2.2203100551732846,-12.062903795910593
4220.0,2.1999645813011988,8.218695750132522,-0.10708026765832873,4.340522640359968,12.198697847834463,-30.704814131664076
4240.0,-1.7159772254467374,11.58118614498508,-2.5737029155197995,7.4317422193810145,-24.047605094952544,8.61838228386207
4260.0,0.16345674792493528,9.525430025398478,4.526971186347444,-15.746843725327645,19.441734951452847,30.02619568090391
4280.0,2.780646204037822,13.244061335801257,-1.7387858054386263,24.827199644645546,-6.117232234579959,-6.261542491055949
4300.0,-5.581359553162112,2.3652276567657258,-3.284328455967864,-31.280210670188257,-12.81494531607584,-29.063315280040822
4320.0,6.91365883105507,14.894435319106925,3.480524734753387,31.727116762804908,25.0242335233286,3.0285448741766414
4340.0,-7.0489865089940995,8.053924415405774,-1.0460682948578235,-31.34518012157657,-19.295378411925515,29.9853515456475
4360.0,4.481126132700336,13.326283284333222,1.528627232201902,19.21651856979362,8.251056848028231,0.6355145738199435
4380.0,-0.18003185586621784,5.799628389297407,-1.0039659412999145,-11.725958624070199,5.463315508192155,-31.016388268184954
4400.0,-2.7676084026854273,9.121016335472747,-3.4183623101992184,-0.4862144588809276,-19.054662466572704,-8.794377029693962
4420.0,4.6223612506766685,14.097981565009032,5.642044554232483,13.743270355326832,25.477429099065247,32.448408717772544
4440.0,-4.488650223890645,7.243088465640734,-1.2414000079385161,-25.477069638484274,-13.53946862351646,11.009771039217341
4460.0,3.3093040434251852,11.765122092010266,-2.7354137605141835,34.34029525638894,-8.026397292284933,-27.05589823732157
4480.0,-2.165637516602892,3.511733255920684,1.7960972796447146,-35.16035094467267,22.34753434641192,-17.00931918038524
4500.0,1.1720942944553605,16.438206382133323,-1.7953241719543804,31.824488286905535,-23.62631937546584,22.7777270248533
4520.0,-1.7372709360089873,7.355584920961808,3.225300071639061,-27.132677423409536,13.546672650406103,19.501250223070112
4540.0,2.3522345566610583,10.25772471605862,-0.892118617090591,16.50053696298917,3.8624633626297444,-22.890198658504435
4560.0,-2.775273678419331,7.410387773457081,-4.232118527511742,-5.505627977487377,-18.64147411487117,-21.473767389739827
4580.0,2.388478923535796,10.26236892456367,4.834415063217893,-12.338494957182625,25.925896474769804,22.427051062759965
4600.0,0.6783138185921582,14.70845112592485,-0.7714297934354173,21.08512117190069,-18.76665799682054,21.862546842423058
4620.0,-3.709962461936173,4.868785767921154,-1.0244526929212059,-32.92148224601753,-0.4039095896901229,-13.415425354236358
4640.0,6.524665751037273,12.514169561794242,0.7411035344100606,35.68240866976545,20.856928183756295,-28.398424216176835
4660.0,-7.7436783649120695,6.075346074616627,-2.995690969867286,-30.498132684430843,-27.167080724987688,12.703574499806324
4680.0,5.7771985802095,16.911873055745083,4.431094563008212,33.38929690601207,19.336905262726415,26.95487027403976
4700.0,-2.7338066845269955,5.987963319436367,-0.6541564916663437,-24.973362111929116,-3.7890982146377548,-6.596054961716487
4720.0,-0.7594537181306203,8.752959292678371,-4.249883601903394,8.833978619667946,-20.606292228118516,-32.448634857852724
4740.0,3.240574552066137,10.181772685313993,3.9596038974116325,4.479497363138318,24.882799203056166,6.523590350292814
4760.0,-4.332596731603898,10.221145973035737,-0.8817048488637583,-14.18440103774632,-16.981321597620813,29.07104767791752
4780.0,3.880036732969792,13.824328402272721,0.5942862583679193,26.129036750422337,3.7593878784940795,-2.399606615939217
4800.0,-2.335606373791578,2.610249442032501,-0.14487383796469017,-34.29669058714734,14.33646808204427,-30.150547518718877
4820.0,1.4396210350487122,14.268462592662994,-3.914999992486668,36.58852904299026,-24.79711425649661,-3.492316324713901
4840.0,-2.060522594120556,7.328001100407331,5.028644713415362,-33.416533723615956,19.057556958913388,27.928050814432467
4860.0,2.7771064301146886,14.153916235932343,-0.3813205095926039,26.038750765185753,-3.301536129235793,9.650279298639944
4880.0,-3.6297016489710208,5.030135384126655,-3.475717322199592,-16.40197411936916,-11.406584776247318,-28.50978073320353
4900.0,3.4457249833648347,9.21550667948337,2.441434999460324,2.829308372093047,25.300835827157577,-15.947046857844665
4920.0,-1.2670156520214866,13.57305311691588,-1.5726556975874004,9.762790188178636,-22.30959994038596,24.60853730755895
4940.0,-1.4554729914763738,8.19829815137501,2.17785195737468,-23.079296552737944,8.952784741197329,16.430912996665597
4960.0,4.985673968459517,11.882548371629433,0.3052693729998011,28.980364225503553,12.051103643565712,-26.363373756571438
4980.0,-7.029222066457832,2.937715158284237,-4.5896576613338,-33.97247110248122,-23.642873487500932,-21.057388086178527
5000.0,7.237312308686615,16.635207455046736,4.589731448578402,34.70325168514129,27.859155016712634,18.117015797082196
5020.0,-5.227100023454664,7.089149920461944,-0.180257906336103,-30.274058988155854,-11.101448291484962,24.90641335865401
5040.0,1.7388731878083872,11.688827310679214,-2.3242392551760944,24.908295980101023,-5.152749069411312,-12.306172165483673
5060.0,1.48161379289437,6.2423182668150545,1.5176125958556084,-8.069062930172281,24.597909989635166,-29.846494502849474
5080.0,-3.3899678076849384,10.484130576845121,-2.3807296162099534,-1.2123643802831192,-21.271205484094615,15.22147528475965
5100.0,3.6600808198795582,14.369656789457624,3.3673106715244465,13.480822645413822,8.48006431335674,27.70460287833571
5120.0,-2.5151962652795463,5.449684635669836,0.3851762275673516,-26.34378985096042,5.9021039750578606,-11.160928247019038
5140.0,1.540575313820431,11.97732907995973,-4.542364679041655,31.595239124667554,-20.804571146848488,-27.651738752600426
5160.0,-1.5593061216330806,5.498027306935588,3.4733893190573295,-31.727245578138724,21.628220319046324,4.595840759169544
5180.0,2.461447941977369,16.909259175876475,-0.27377576440613965,31.33864620143081,-13.988349117619697,30.462099716829428
5200.0,-3.682913573563405,5.621122603104536,-0.6510280281286106,-24.153918210469843,-1.4233084370132487,-2.598654168684874
5220.0,4.222312147231598,9.318454011971072,0.5751768456986615,17.22519901221416,19.907236203360082,-32.59052869191652
5240.0,-3.412655371393557,9.581786501092772,-3.931293896700073,-5.35506029714573,-27.693589527916497,-4.039987016280049
5260.0,0.8081894729817759,11.056177735773652,4.3649594414389155,-9.702882883304131,15.703822310070828,29.578399424055526
5280.0,3.0076639660397917,14.099347479409477,0.7930025571547737,24.33081772274553,4.137827356514422,8.155201163821905
5300.0,-6.103876693271719,2.982642496081226,-4.616851979902615,-33.11941154926986,-18.584880408372502,-28.927115296659707
5320.0,7.291783693493694,13.593378478911857,2.740306149471039,39.3664435406755,22.333668339112144,-14.67719225979199
5340.0,-6.74302631287119,7.209756798794704,-0.7611420833977319,-33.88577620578098,-19.637917989762304,27.20164818218504
5360.0,3.7017285610122217,15.486720790022336,1.0351865825808517,27.306201039630206,-1.1311787118139114,16.17128289548051
5380.0,-0.40054960683447893,5.11179788168227,0.6162218414876627,-17.78695991161806,14.601974977300685,-24.954995987440288
5400.0,-2.181507644416134,8.815046165928065,-4.994071249112471,9.439982961125605,-24.194467184975778,-19.512650950620962
5420.0,2.7381766629083133,12.29334118424681,3.805847412863718,7.278764811497494,18.396999451834738,21.536052441967225
5440.0,-2.390113455444155,9.093716687400592,1.115491144162481,-18.10681021299125,-3.750022466316215,21.347613223050697
5460.0,1.636188647597092,12.301730052417554,-3.2998337263720865,28.348210933999948,-14.607509085462715,-18.88150329873854
5480.0,-1.5721828487281873,3.1756167718350574,1.3872124762794928,-38.387825899912755,23.84792103952478,-25.721827475795298
5500.0,1.9872443637269332,15.83146240473873,-2.2714381835860538,34.64965648207068,-23.66008586784394,16.72324848994624
5520.0,-3.4930125955474005,7.859111011783738,2.7457944458467094,-32.1811111849989,6.77989618360045,24.78981001932976
5540.0,4.362625831993271,12.595554330610415,1.377979588576767,20.412162335350505,10.058017718606328,-9.087029480859345
5560.0,-4.396015349337959,5.34216536407863,-5.433861960154643,-14.969828197363086,-20.955596292240713,-30.578647683091937
5580.0,2.736382407220958,10.434799829210593,3.4796571485085854,-0.07706342255604337,22.182245729386516,9.413516760353719
5600.0,0.6922254979819703,14.201436815355025,0.8321432646427616,11.359635030930153,-8.605148671997005,28.48141965807511
5620.0,-3.9698393276738955,6.362012688898752,-1.6065904743763764,-22.965099958284032,-9.83249829467855,1.0077336456470882
5640.0,6.655720199170629,11.366215926294167,1.2663306069708016,29.411075510431097,22.664807696850517,-28.855141479676448
5660.0,-7.52863049529409,4.553545024969437,-3.4172575840195596,-36.61417892811268,-23.94809220572644,-1.2456285565014988
5680.0,5.280451105799727,17.33015288320857,3.1989955316635768,33.431567118552245,9.637009713781653,27.571557136772743
5700.0,-2.833674039202422,6.277539214938139,1.7280154718994005,-27.40436382422586,7.698739115893163,7.922675495489943
5720.0,-0.4088093011006647,9.960530113232299,-5.011997799888839,20.799273533467176,-21.098691323527913,-28.1625279763119
5740.0,1.732568125065121,8.082271327524877,2.548172095204045,-8.999402619525924,25.075446998832685,-9.292558890260825
5760.0,-2.6133018479138057,11.308907870620972,0.39988977793196995,-4.719078212152092,-16.32887812781529,30.075342846166247
5780.0,1.5057258951631298,13.800811731744103,0.21354985220182987,19.077710426190336,-7.358011292188679,9.171606437591322
5800.0,-1.0148450657451569,3.804295228847883,1.1330427226572664,-29.408379641983824,17.755386003572728,-24.588878150793082
5820.0,1.611273384719059,12.93652341367187,-4.647398191991686,32.700190430404035,-24.12438641419002,-18.794966285770617
5840.0,-2.4608613726640227,6.798366640115668,3.4523310993785286,-36.48346937494611,13.378888625137407,27.47949958996358
5860.0,4.796153751248869,16.068245965484557,2.015865787709126,31.904716826663332,6.0858231772165485,20.512997224985853
5880.0,-5.095419816087587,4.863763747905836,-4.024288395830068,-25.944199721028177,-20.162860374756246,-19.34159371028809
5900.0,4.294907315064522,9.624962547705621,1.8952399453570297,11.406058293399589,25.98586717755766,-25.394608027216893
5920.0,-1.793395607489825,11.081676964110347,-1.2966492394413769,-1.0998214038601868,-16.06464068923723,17.22048371378532
5940.0,-2.087764608523816,10.593213455030783,1.6228573296672135,-10.740169491522542,-3.9093496552392963,27.862823699490473
5960.0,4.97842352334058,12.176777155085404,1.804707000816056,21.332435496548324,20.027288080603142,-11.928052347506584
5980.0,-6.994003564656205,3.151948042750251,-5.523739085465977,-28.7442461153816,-23.99863937996512,-28.310563020589573
6000.0,6.92030325431466,15.178520361517599,3.2752605285657546,34.32791334735472,19.19997918417893,9.0789191114366
6020.0,-4.32702880198315,7.488520339712502,1.2699204747401223,-34.22176199545523,-1.5331878789270257,30.304170662358462
6040.0,1.675214141278827,13.648503947954497,-2.577884010042769,28.065852537618618,-13.017024817083424,-3.445539180455218
6060.0,0.9768103708643712,4.801152988453202,1.4696139019333703,-21.036892765375264,29.13304323636805,-32.72227954595236
6080.0,-1.6538966186618693,10.807506368435966,-2.864726351443076,6.384071267036543,-21.057655784366553,-0.09028517475967529
6100.0,1.794987791966598,13.41175768213566,2.4378757205954678,8.738457861194894,1.1758707042769228,29.258890270722453
6120.0,-0.41863735363695365,7.622429708090732,2.4157802108865223,-20.3897667861606,17.21180628869345,4.35148839353829
6140.0,0.9593427988407756,11.589448800542813,-5.305866494030794,23.120395549102582,-25.254521601795545,-26.731303258542383
6160.0,-1.7748981846715812,4.510113787478665,2.4034693250133237,-32.49070117805776,20.72951236894606,-8.463766671902999
6180.0,3.9338261711612654,17.316224736394197,0.7976336266168043,33.806120037692935,-3.683375011190904,29.102437729633728
6200.0,-5.639666711605701,6.448996272738933,-0.7099332896244174,-28.227951760045563,-10.862223020535012,12.209946681167013
6220.0,5.5354111365497705,10.560967067494179,1.6913949288428676,19.503911387610806,24.049040139370007,-29.115193871164664
6240.0,-4.078987813592746,7.136414220009501,-4.056146708139915,-14.432442188509665,-24.33752540076911,-15.846980911889762
6260.0,1.0865768570708334,11.515941954969627,2.420315217262742,0.9238744979943945,6.114841514069193,20.789672485812716
6280.0,3.018505279263571,13.22327575164059,3.1414262691899166,15.668688010964793,8.234944505684275,18.53661831477824
6300.0,-6.1660801239819385,4.73140940491002,-4.811170245021302,-23.615585684443815,-26.751235541816854,-19.431759846656828
6320.0,6.651402828900456,12.659296746645788,1.5885231504861645,32.95196020092379,23.185601874637285,-23.641461185142305
6340.0,-5.633593984007213,6.359426333206657,-0.3984923772795266,-34.874570969539164,-13.36221529602113,20.48924552530772
6360.0,3.1622916218826638,16.85314114274442,0.22249029058773329,33.80385142617234,-7.977862693494769,29.335555346418342
6380.0,-0.5628989586351182,4.915924174703101,2.2773048207947304,-28.14647711267874,24.800954218255832,-12.922785657010781
6400.0,-0.9206636839821096,10.331480036255453,-5.454237918774339,17.288201524983776,-25.54368049883849,-27.44501696818703
6420.0,1.1240545984914325,9.693905562103245,1.918671014820866,-4.564101170034081,11.789329324961415,10.79645031834834
6440.0,-0.34072398337290266,11.528701293671988,2.9359540694993207,-11.328100570322349,5.101588159473985,27.266508579335905
6460.0,0.26231367322859894,11.826037664974471,-3.856696594347652,16.318301132998542,-19.52079662247012,-1.9491936219743313
6480.0,-0.6176944665560844,3.0113838549973697,1.6320490049997198,-28.696474332772127,22.63129442326667,-28.922249900680743
6500.0,2.7044967524847707,14.869179868639495,-2.247004296683837,35.01630270912651,-13.007365381816612,1.9979638214933013
6520.0,-4.93582952903147,7.162789651347824,1.419552107999112,-32.25633494365827,-4.439202460788977,30.605157844444
6540.0,6.428852403375501,14.699275525652507,3.219865207192617,31.358036474229323,20.56238745045785,-1.044946426545788
6560.0,-6.118085280690582,4.429418398423665,-5.5275405248444605,-21.836137537246945,-24.307580257821005,-29.39202670347326
6580.0,3.2322146345888063,10.728497224666514,1.8269383779709711,11.773863974191494,15.715828738332855,-8.725757846815467
6600.0,0.5408131209979152,12.537293769914701,2.176128844088111,1.4047398657173495,1.995815027085579,31.470042311927795
6620.0,-4.252449875167955,8.905333164714989,-1.9013891173765298,-11.789758875482237,-16.469465327723885,14.467317311923667
6640.0,6.496899597171523,11.287118880765036,1.4424746943960285,25.656362738530223,24.56449880944918,-25.459990973229203
6660.0,-6.270454535660273,3.525106693901044,-3.185714923892639,-32.13984659669071,-19.480898681571073,-12.992558805537781
6680.0,4.472351386500193,16.643122599427002,1.340081925308893,33.417838672239256,1.4110813802172895,26.575299347988572
6700.0,-2.3407235317580226,6.408233458184065,3.6816912368287826,-33.49487007376379,17.883954357620098,20.50476635023558
6720.0,0.4436607132019103,12.047334026237225,-4.761085383799588,26.693520635697983,-21.47026752136867,-25.361355159390488
6740.0,0.417354053330038,5.699948395691466,1.2468568295555222,-15.828126364280985,19.190921444830394,-19.4228350535796
6760.0,0.16598805514853918,11.804899476213352,0.9550843373854954,1.3045419428752325,-2.934811735812269,22.605335192174046
6780.0,-0.4324174177787458,12.81589524311405,-0.5139915962758914,10.25837126494368,-13.965504332740446,21.7826844874214
6800.0,0.5297998357129147,5.473518020001803,2.555070998071859,-22.52288972334574,26.475694334611976,-14.928583298183845
6820.0,1.5438725984524266,12.07304904265816,-5.002629647343057,28.83419827734715,-17.411292276666266,-30.554408513944026
6840.0,-4.101019398657009,5.419323279150686,1.4035147311814375,-35.70773594732252,5.379379202596193,9.643304941471065
6860.0,5.742056046053937,17.50360642885454,3.8344746483018244,32.89985701654041,13.439941207405266,28.26765238622346
6880.0,-7.017682839025595,4.906539679198189,-3.837016834120117,-30.959114791220877,-20.85299156580037,-4.337374729495794
6900.0,5.616665313285673,10.314002864813618,1.1988940204643388,21.898062626153234,20.739437854647818,-27.364785120830255
6920.0,-2.2517901683883395,8.60470752817947,-1.2486047269171292,-8.702134932097824,-8.400850774953529,3.4033429898788397
6940.0,-1.8950604997245744,12.09892981239485,0.7951536982923572,-3.9817203857644374,-8.274052906662583,26.73204285371623
6960.0,5.142494716887498,12.225809179287232,3.651640815676414,15.387891316182476,24.960504312894948,2.1993295451916017
6980.0,-6.049720943185284,3.8228244694115894,-5.361870061932776,-27.296099914019063,-24.477928174015663,-26.172877530956548
7000.0,5.441738910855427,14.099161653421165,1.0701646194502517,33.62905111452876,7.3439603297667615,-8.268107825802165
7020.0,-3.3311247487555433,6.919410474018158,3.263821513836844,-34.482424116635904,8.627821193484776,26.54224003312273
7040.0,1.1431193798551589,15.00376397165476,-2.058711107862873,31.665366056576328,-23.427632853591817,10.524719627027949
7060.0,-0.27332620623280907,3.7643151534178694,1.3963818654824074,-26.260978439439562,22.422356471662795,-25.44374101740835
7080.0,0.5772343566683757,10.86075939588408,-2.530940793856672,14.055778422028421,-16.470208729592308,-15.389780726192779
7100.0,-1.0572100434648457,11.231282422763673,0.5023253075191283,-5.397939848600146,-3.279487267091577,23.989514321790374
7120.0,1.2433876568883038,10.09215753357792,4.023855777914588,-6.421245403809683,20.425064488832064,18.998376826512718
7140.0,-0.2739132408098503,11.361070442787698,-4.783316374559836,24.655633693513764,-24.7144483951327,-24.665023974605386
7160.0,-2.0472039017140307,3.489638152866737,0.5216018991566369,-33.005737821795705,12.635616053948608,-22.40384768255981
7180.0,4.944264449941426,16.117363195220655,1.8050930500138318,36.01175266362952,5.810100351459849,18.537757724081654
7200.0,-6.927437608240133,6.767629626590445,-1.1136761709920955,-30.15885747335211,-18.821064225993823,24.310533390196788
7220.0,6.536311043819405,12.656965999789934,2.3445893610425674,28.505662240452402,24.290933158713813,-14.42266536404506
7240.0,-4.326203298185608,4.5151310860805784,-3.926601891353109,-19.216756089175675,-16.289203308816713,-27.757115322906277
7260.0,0.7081970551769542,12.31112076037876,1.1350563675810996,5.933792758650641,-3.199940442023443,10.76737962921705
7280.0,2.9888360014339743,12.832356970252082,4.265560760119822,6.78002244930586,19.803133514947802,27.78385094886353
7300.0,-5.524039015435055,7.030702888721821,-3.7375696038226875,-15.189258186642347,-24.01408281248678,-9.901968067348317
7320.0,5.415102158432815,11.038404349708829,0.20392971395194381,27.617388547962257,17.1379971323211,-28.5865047319721
7340.0,-4.066202698415012,5.532168031801245,-0.23171691146275059,-34.19762721782402,-2.3294741504476804,-1.0598613625117688
7360.0,2.62265102092928,17.08848256024316,-0.5063342603854095,36.52510250117692,-19.449298478687034,25.703748053822046
7380.0,-0.9656769627313693,5.037633713742486,3.634412038811811,-32.694970320217905,24.54300326732039,1.2573323989774972
7400.0,0.8895546041893048,10.940728190319794,-4.658824235418426,20.12554249643794,-22.019909733288795,-31.7355841658039
7420.0,-1.700207688934735,7.418230704924634,-0.2808411121943628,-15.503646422481967,1.1745972138765959,-5.790970545881086
7440.0,1.7677044553162105,12.3888562752105,4.313952847275492,5.049428054246794,13.592101364855091,28.902406338461688
7460.0,-1.8469093909514975,11.994419015617204,-2.9007056182465125,13.697568918037005,-24.20905350739038,7.87227007529949
7480.0,-0.2196112136897438,4.205762636066852,1.3630425167074915,-25.768176897955453,19.92227981826054,-29.746180560158187
7500.0,3.3386985714293735,13.125753998066061,-1.6922072587576742,28.049683020962636,-5.643410364492525,-14.971506827907147
7520.0,-6.39452322516067,6.737902846938419,-0.3109059160714929,-33.64308650149455,-14.044387202152723,24.724045320669163
7540.0,7.493650409087238,15.985486283603567,4.33895923269261,34.55983614063655,22.67335389153933,18.8838325387828
7560.0,-6.077664770098209,3.759054937135217,-4.679682001318644,-31.488745525769662,-24.024401513070426,-26.17281960050398
7580.0,3.719591396769067,11.078858963183158,-0.38644468639373053,19.85588052747026,7.841472255051457,-18.67397200158561
7600.0,0.4248660905655435,10.393036407927971,3.343609396041308,-7.465942080812921,10.05357347762148,23.830996459351518
7620.0,-3.6489183647729377,11.411005715164292,-1.9568526839934233,-4.809913447669519,-21.005385413044642,25.109390958297812
7640.0,4.731523765462809,11.057214135735496,2.401893680412391,17.62225077235226,23.032475500277197,-18.73572154743769
7660.0,-4.792998766946994,3.7853965302787023,-3.0938274551033227,-28.601807925936992,-6.552283856670366,-25.886722235904198
7680.0,3.2465994955034523,15.428890041652885,-0.151163549884648,33.5956483788884,-9.649774458055667,13.245779214700237
7700.0,-2.0144409736180537,6.964138519187748,4.993214492781651,-34.06467868864786,19.928766511857464,28.677896650564335
7720.0,1.4138901329841236,13.486688518897683,-4.034352036542446,32.01142982217155,-24.985349857524522,-7.510082448284998
7740.0,-1.7923104116634025,3.8216737401785137,-0.21022180287441913,-22.281808517301506,12.90171260339283,-26.937368855020058
7760.0,2.694984083348629,12.081507035152272,1.315859997037719,15.112261217617549,7.28967293474013,5.8850667731839055
7780.0,-2.8334861484931353,12.177560062631073,-0.8681839678652756,-1.3488939002484388,-22.044112577033093,31.78671045182118
7800.0,1.1370269802009592,7.999851328589948,3.8526172806520718,-9.878782304341831,21.656818451741753,-3.3232670863284914
7820.0,1.2964991289823777,10.676162738166871,-3.7091702122387793,20.103953395403042,-14.648516311954848,-31.206775348374954
7840.0,-4.426709020583416,4.9698028516566195,-0.393571403650652,-31.449464049858435,-2.8949150611592707,-3.09803718648012
7860.0,6.675433111851134,17.10503854420677,4.705020879329332,35.77481346874336,26.131561391597057,30.307086792690704
7880.0,-7.285941290095482,6.00575453235915,-2.5508584512456585,-31.80560163425239,-23.329277532869384,7.344760431322032
7900.0,5.404046719607746,11.610453437321668,-0.024578254745806438,31.003467364972394,18.108096547243555,-27.312396681907085
7920.0,-2.015572596026005,6.013665188291781,-0.3975594248851432,-17.395968942781977,1.6571899782048414,-9.478615047102132
7940.0,-1.8498924639575327,13.257732058462055,-0.6788002157740176,4.4215752459055935,-20.016745580668537,26.779605248927542
7960.0,3.9094496138514514,11.883686773788925,4.60335229808227,5.815290656445706,25.518400508082767,15.966771005432472
7980.0,-4.389279185215034,4.9619462563261765,-4.041341472575836,-18.771298818660522,-18.91582850753388,-24.150866649200687
8000.0,3.6170287966905703,12.030565888666594,-1.3453374741263489,29.148758512541416,3.610059088621239,-21.084663024034136
8020.0,-2.4117318273367956,6.864419795988349,3.6440100092924332,-31.1102175928465,19.148879012442453,25.67064102621156
8040.0,1.749606328226069,16.974440754936392,-1.9188346392390476,33.586600936410434,-24.35711524122878,21.902628943706485
8060.0,-2.0689150962788685,3.5984010254051415,1.4422142560705666,-29.937718900573007,15.695068219503824,-20.803966359218876
8080.0,2.8751804930198404,10.855338031999441,-2.242802628304219,25.418199293780443,-2.413614585000672,-23.73702664474263
8100.0,-3.598311148812044,9.245833936615872,-1.3174934033781802,-14.817899389630165,-12.812190202874806,17.35104199754457
8120.0,2.7824159563922963,12.289081363081056,5.120126586790793,0.27150953146338036,26.91974291274122,25.456401976721985
8140.0,-0.9088523968205648,10.722145888069571,-3.8778342497028095,14.263596385516948,-18.64091650371064,-9.787792538374045
8160.0,-2.6550472929796043,4.041667762805934,-1.2767569839598936,-24.50563863324316,7.0186094472152165,-29.501798415863696
8180.0,5.62001313824062,14.730189698411499,2.135037321816898,29.05406307312285,14.786697768974516,4.681388822416134
8200.0,-6.963225967362601,7.134161097387624,-1.5096353309616568,-32.599918846301684,-24.000456787268703,24.999904453754272
8220.0,6.885652723358271,14.536137951305165,2.9168894222882495,31.74696566109226,23.682571920421214,-3.9319740719194956
8240.0,-4.067056234782499,3.7041155542242956,-2.8265297269872005,-29.30380268626155,-11.329731606271782,-27.722487225972078
8260.0,0.7826031383737642,11.984786181515647,-1.702866600061825,21.01378309698367,-9.864289425464102,0.2473266251745454
8280.0,2.4271962434202443,11.545945274164858,5.226278083994253,-7.673381929628854,20.515066640321066,29.842639429451392
8300.0,-3.7986235994727937,9.38012688879558,-2.897770334483849,-6.724458396238185,-20.899419582139743,2.7533847994697784
8320.0,3.559330684985442,10.146628677757777,-0.5178157535832192,16.24002834016715,10.316377334869559,-28.135308626758125
8340.0,-2.840121352838936,4.874679524029441,0.5192120566135532,-30.14634209296514,8.168092427838054,-10.430452361671488
8360.0,1.7878146346742059,16.880178793002393,-1.4852374901293737,32.943328158937476,-20.124383231687542,25.090743518115616
8380.0,-1.681593256309043,5.513575388056513,4.260327542073041,-36.39040978597919,25.39558443811239,14.433185084506638
8400.0,2.575151377285806,11.956597503297166,-3.4099181925906588,31.787485135069925,-12.618179178105498,-26.881256105973957
8420.0,-3.7245548590822004,5.245535737864897,-2.3975013901997935,-22.602167469097573,-3.4716580455592045,-17.294386734718277
8440.0,4.196197773413772,13.306005293025027,4.49112024968753,14.665942323738243,22.849245470400355,20.27605898743729
8460.0,-2.6711717385827662,12.076089147004293,-2.2402268877295493,1.1794861693764513,-28.62058963877528,20.045379063327253
8480.0,-0.3169114534617732,6.531197021514709,0.36204600747032467,-14.577486063839613,12.188810664138956,-19.258425000670325
8500.0,3.6310359457163592,11.367505697491834,-1.3366259796575062,26.940162302619317,2.684881028434077,-28.119704776794528
8520.0,-6.41817517652886,6.414205026864683,-1.2363491541171738,-30.766005287890533,-17.55574615000088,16.567124704902778
8540.0,7.665208368116855,16.857317137067618,5.323880506805041,35.9016657888481,25.50720767015043,26.290001113590087
8560.0,-6.40575076729325,3.887480706762707,-3.290782199108233,-31.057547323863353,-14.568563656068516,-11.663497824601256
8580.0,2.8748386762331037,11.207369976025749,-2.329635652459504,27.68676646638053,-2.4310229157887506,-28.647735753359537
8600.0,0.32105295413267776,8.235224297440906,2.9892315551758752,-18.032805261523535,21.238724813156125,7.703536354981505
8620.0,-2.5416478295020966,12.737893105104824,-1.5495918834155282,7.148266803565088,-23.855217188892944,27.317134627320826
8640.0,3.245383194729846,10.619328663224413,2.0041421963941524,3.549492151587863,16.615315984840198,-4.421799870649729
8660.0,-2.5060181522745846,4.302197591650511,-2.182357195485894,-20.146298045088702,0.13066469349209187,-31.68276365607419
8680.0,1.921809035509014,13.821163817161493,-2.1429944452806478,26.70399728967533,-14.852758464914928,0.6579551596507238
8700.0,-1.5099573313290273,7.532336414138272,5.611712645130228,-31.450263601560536,23.95497481927035,30.848287650447546
8720.0,2.133445915977346,15.145954881839696,-2.2745599126924634,36.08577965686153,-18.107021325635205,5.119325074453404
8740.0,-3.4654647489376593,2.8197956884301503,-1.5846564078128842,-33.06137583465769,0.20262074995390433,-29.596473883250837
8760.0,4.346567629717972,12.225558591042937,1.3101436164067883,22.561545910045968,13.850013344617723,-9.483917501197206
8780.0,-4.462319120706824,10.63880851084417,-1.4173370220040626,-11.755740919051155,-23.208633382750225,29.06553371975485
8800.0,2.000548120533984,10.242296188452269,3.6845909950151086,-3.386180443152318,21.291474785800922,12.265432958745285
8820.0,1.3837033727248016,10.012125636473584,-2.6009006068885836,15.972029599616386,-5.790182508410094,-32.898126900079674
8840.0,-4.9789930354352325,5.05587835763756,-3.203347066006001,-25.55200901983166,-9.565471319767749,-17.51770886199676
8860.0,7.13320022611403,16.47405183916104,4.766447543629631,30.522896902572917,28.572955605624763,21.888816084795376
8880.0,-7.32899439347572,6.478707974032681,-1.6821655826648882,-37.7432337572227,-25.403226645407976,19.36151099673046
8900.0,5.189883846954145,13.065844012850834,0.012652381681417357,33.16930095794149,7.213886004355239,-24.78542209098365
8920.0,-2.1833261618468183,4.403857249088856,-0.1715115515932098,-24.594851524654803,8.032559113032125,-22.646799275338587
8940.0,-0.811585479066197,13.176928046157686,-1.9601562404759865,14.329573130500386,-25.13795784156935,16.176413143445725
8960.0,2.4199028956916235,11.394563141785163,4.77458779034018,-0.1253887150962938,25.036145713901597,24.642010993942044
8980.0,-2.6146908506248625,7.164908976130055,-2.273586285369271,-11.138617704574433,-9.329740750897384,-9.76278045980198
9000.0,1.7044662274086368,10.317655234588127,-3.02795422356317,16.712571555817277,-12.013925634664059,-24.187305927966694
9020.0,-1.2229216997141759,6.426393723763678,3.480666271858843,-29.566884046357377,20.396705517837717,13.068189280489829
9040.0,1.424791509986574,16.77889781326621,-1.264382087943035,38.87370631711877,-23.825540843034755,30.15334436534112
9060.0,-3.0951471346818082,4.288919209778068,1.3002328065880064,-34.50558719860807,7.393680899471947,-4.9787282764218155
9080.0,4.078623705880229,11.575583102710173,-1.180706223611752,31.927350652833958,5.441339980481856,-32.54988597688015
9100.0,-4.902145593532553,6.9898256592871455,-3.0335883509553767,-23.179892013941334,-25.241394467717335,1.878818284756473
9120.0,3.9919273944195757,13.755036925725593,5.519800052829682,7.282694039795712,23.63674446975342,27.19305225289237
9140.0,-1.4361651099717623,10.34231046212143,-1.4616261420274417,3.992594302565144,-14.26560435952986,4.708861367869972
9160.0,-2.6032282276532994,4.699690063201643,-2.5915486321607712,-17.309872489507555,-4.310914882133703,-28.399891591077818
9180.0,5.381310714546778,12.946765310232577,2.1051853493868675,23.20409495375137,21.527936905336684,-8.546028064691251
9200.0,-7.2648257353638375,7.565366752000679,-1.3447564496942015,-33.754807558931546,-28.059090407696555,25.72071418771639
9220.0,6.274644534834423,15.35919284129852,2.8122423324566252,37.83242765176412,15.490809773288023,14.687694805137188
9240.0,-3.8049919892483923,3.0647938146727887,-1.6755090305264273,-31.47374627084695,5.50232354737161,-32.31333513806109
9260.0,0.89010670631872,12.53632293429896,-3.670009443864492,23.022822142334125,-19.175813745952514,-15.932790762038275
9280.0,1.1181668253330082,9.534262861602945,4.842679097443827,-16.525018653341363,26.372781736648413,27.940128967231615
9300.0,-1.8149429696309198,12.075827081837378,-1.2350075557564086,4.156178354376764,-15.459860936870236,16.698019003149458
9320.0,1.397978950552657,8.801215701276835,-1.7108643339367648,6.252616625656859,0.687504095463629,-20.901476076262448
9340.0,-1.3278509056777024,4.642944272398021,0.7854930052064096,-20.844941102875286,19.56220434076132,-22.165630938586766
9360.0,0.788212830627735,15.943592667401408,-2.2475096331035815,29.500547442721665,-26.554420894716277,22.764230384112153
9380.0,-1.8127752590782327,7.0469442101604125,4.025687636690276,-34.2240359559122,21.33567425128688,21.34709009299302
9400.0,4.280906204450979,13.470350671017844,-1.0252224239315992,34.239324684959385,-3.489168800182457,-14.418050696875923
9420.0,-5.455797922644092,3.6018287358398373,-3.770963372699548,-27.745364442517417,-16.73421972906288,-31.048203520927046
9440.0,5.233112243115871,13.65943091427945,3.928984298398906,20.39823034792667,24.971139995902174,9.47644232198238
9460.0,-3.468020404285976,11.085299950951413,-0.7318533106406808,-9.468678019603336,-22.56480672997673,31.02950285908334
9480.0,-0.051988309666180475,8.47435222686183,0.17927136955861656,-5.663798240661539,0.9037393205879272,-5.422849311948292
9500.0,4.235142215385958,10.144580080107442,-0.3215936474093191,15.342708023848395,15.242583878923243,-29.490596221445053
9520.0,-6.723616179719185,6.54218870884502,-3.137853483356259,-29.204247563932388,-26.809191782749075,3.5365977873426613
9540.0,6.841790086983401,17.01804774602787,5.07525624282779,34.958628702081405,23.79889566798289,30.111076014589454
9560.0,-5.531253765033261,4.8118712241760475,-0.7725593424065746,-35.467234280629334,-7.989707759971115,0.7771551304778253
9580.0,2.7333283103986736,11.630795776749961,-3.640025140465065,29.663022272187078,-13.351839235027265,-31.321340278024376
9600.0,-0.16113344969766397,5.7087739676925775,2.8934526082542087,-19.62751742082666,22.520924359478464,-5.585045374607166
9620.0,-0.8735284638718788,14.111212692744722,-1.2204131406519871,16.909261208830145,-22.132635234547326,27.540095084581786
9640.0,1.4988014129293905,10.49088628065134,2.149590934134166,-3.6791692583371693,9.841032783539575,10.826763860510804
9660.0,-0.09108692978696808,5.823711071371599,-0.5515325586005954,-10.186307879949315,8.253047611577731,-26.783621448917447
9680.0,0.06286699735814802,12.047102100803997,-4.1007015751903015,18.72858122942958,-21.784504594281152,-12.48100279289065
9700.0,-1.5525158380812996,7.325524406716661,4.629262759705771,-26.760804739199507,20.85269863756716,22.88234002252718
9720.0,3.079515600233338,16.31800627444886,-0.41671447463553646,32.85734635027058,-11.238965263794896,15.47628251069465
9740.0,-4.987298718501207,3.366921977003069,-2.583750002353405,-34.849262396445404,-9.184501346908991,-26.58830918791718
9760.0,6.251639165614057,12.023194370269668,1.681783213255677,27.900607991201333,20.02410141689513,-24.52033674557308
9780.0,-5.131422871071885,9.055695231418078,-1.6406398978181427,-21.412117732363846,-25.639606354202925,20.548879259978865
9800.0,2.5301412628505737,12.711161166361174,3.782626670991047,9.385409330453992,11.312632215275185,22.66960769067215
9820.0,1.129592422630099,9.12072639682686,0.1329905902805124,9.67472560304636,1.948022461761897,-13.528928408779212
9840.0,-4.665355255337717,4.655548811782438,-4.943440951671182,-18.584393803413228,-23.243745051657722,-23.412968603460946
9860.0,6.307535279288777,14.80491667416602,4.459898921336952,25.247789175326954,31.12920065128917,11.508618487523766
9880.0,-6.040198777120383,7.7228069614910035,-0.0604337311188837,-32.13690709413833,-13.612973115386936,28.068907466887275
9900.0,4.5836550644406655,14.125268902452676,-1.237595569930615,33.877383456708564,-2.2636798064799057,-10.882087245144278
9920.0,-1.9123294355514537,2.739260167275595,0.4845350221481549,-34.15903967605186,18.225834047656875,-29.287721905183417
9940.0,-0.31875536193321485,13.27131287127912,-3.3407033542887143,23.814116761263776,-22.561118804387668,3.797315813932561
9960.0,0.20100960014718744,10.517033359606469,3.9848176922577117,-11.781099810759214,17.295941530064457,29.510164608385235
9980.0,-0.007340727359786168,10.145907662225675,-0.007153432107348414,-0.06352129482983049,1.412960207415436,2.314934898321762
