timestamp,ax,ay,az,gx,gy,gz
0.0,-0.21056185081816345,9.824162000904588,-0.30990088011730393,2.38597914730808,-0.13841444024802488,-1.6240801249780756
20.0,-0.33004258887981053,8.92175624036637,-4.303614096905119,11.211388122499848,-16.10109221673099,-28.487545618263326
40.0,-0.20210990499403625,6.1326803041447215,3.6566443234319883,-23.36356792035815,26.823058047303466,-2.3622596433574046
60.0,1.9615159991729643,16.957222109078103,-0.8519863102791018,31.470738467862493,-16.383555463453398,31.136226137148537
80.0,-4.306173631970376,5.8607632933360705,0.8451605360280967,-32.49042733250113,4.763087517369772,9.608007834723644
100.0,6.132239630851504,12.19895857699772,0.27140873338322163,34.95092229626803,15.678106138385445,-25.776331571575195
120.0,-6.6296799793680234,5.175038557204998,-4.331093705250528,-27.990460521897674,-22.824396099090414,-16.543298438316704
140.0,4.821254710189104,14.556382556005563,4.4670934625722465,17.73248741272204,18.717077536505535,26.209614470842023
160.0,-1.3052884414856694,10.091865874551667,0.39191470094506503,-3.63410302168065,-5.021086715733416,16.547168565814445
180.0,-2.604842589459538,7.197093450653996,-3.4012797294383064,-8.381602851738714,-13.932241931283357,-21.84924917916712
200.0,5.326397672327639,11.4431796337146,2.1011328741187563,19.35527077313078,22.537299441061215,-22.989533513186863
220.0,-6.152876592026526,7.68317410136118,-1.5141262634871697,-31.277085629782363,-16.84541873917927,22.177295167596796
240.0,5.011792824558234,16.604979714068854,2.4050997299905896,32.058206060111395,5.898811741780429,21.433418659159486
260.0,-3.3107940746596487,3.61417671114343,0.2720460451885926,-33.201236342692276,9.321945711234175,-16.934006090746827
280.0,1.6956466234340155,12.179311792368608,-4.999937408966337,29.624618406686693,-22.33927100495966,-24.754855396874884
300.0,-0.16718966174968214,7.809549983989436,4.165061123057571,-22.047654135218373,25.220765766934274,19.10623553894152
320.0,0.44301624732304895,14.163622989486537,0.5703011933462202,10.73899778726252,-10.944123614681216,27.641763892625754
340.0,-1.0230271762890049,9.18665757764159,-1.8273752846273323,-2.366988089489771,-9.172709063846755,-10.083948194200756
360.0,1.1899282514516396,5.616090546319269,1.4159480938717608,-9.444362702240674,22.32983575468139,-29.75451110244142
380.0,-0.046451389369629004,13.638769266529163,-3.0688397642392045,24.41610705431764,-25.15006865549001,3.0026554327436457
400.0,-2.802722821534042,7.94545879854257,3.445819966324884,-33.270539029166265,10.66771881437235,32.87225767910199
420.0,5.440085690093059,14.908621792112598,0.8891323958533034,33.46531929851487,9.812936575973616,2.0000414743476567
440.0,-6.988570285606948,2.651546691229338,-4.945211059947587,-32.03817473439497,-19.7988678194771,-31.06578090732639
460.0,6.795415188896547,13.200269620538906,3.2481975866439146,25.96271782282287,24.335391880342254,-0.9593186233967133
480.0,-3.886703243725433,9.804923223093468,0.18150230224645536,-19.087089040223656,-15.07743380685464,28.849895575208958
500.0,-0.38036545460676485,11.263772554897155,-0.15110981708458485,6.100682792657502,-3.077154029173731,7.7366408873842545
520.0,3.3519873301375585,8.598475147088761,0.5983216656925852,9.017150999830704,19.40803798660882,-31.518646715336622
540.0,-5.586975608541702,6.110637007098563,-4.342867926751604,-20.244294319480144,-25.44894168215753,-12.485468693167524
560.0,5.766817234211292,16.279398244976736,3.8670548581116138,27.774982880519186,13.789925939320394,23.135001972761156
580.0,-4.224111130231264,6.377450654309388,1.089154359158938,-36.935580703799765,1.8208168627777495,18.272078296669815
600.0,2.299440889170956,12.528854064111453,-4.336755333041669,36.34650677773453,-20.94115916966377,-25.292576960434005
620.0,-0.8699727823257333,4.516858847535428,2.4565882631944675,-32.36737888101355,21.93251443202973,-16.86660574973517
640.0,0.7204721713281437,14.792692940404583,-0.8204586746909395,24.340960986532338,-15.885378881874951,20.105256939475893
660.0,-1.3588774644160606,9.84772590493989,1.2358632213748004,-11.5958912287141,3.186486157134374,19.565599374692876
680.0,1.829763590230132,7.7181763779683425,1.2189593593611252,1.7293343552483824,16.115259401844067,-17.35767356537028
700.0,-1.1497852061467524,10.125674706243345,-5.157429417050254,13.45414969921775,-23.739604887687477,-24.667677673582194
720.0,-1.4015419352765464,7.5000888768027005,3.4924662853238346,-22.64144090443247,16.876639324432496,16.61347274289616
740.0,3.5580500534204127,17.066136083636955,1.7206203906648116,30.858123924074494,0.6340123434390521,25.175653472426216
760.0,-6.4800745479458675,3.949289719932234,-3.255598154619683,-36.15521520687148,-15.823433297538802,-9.815468097651907
780.0,7.288661481870988,12.050221124170386,1.3873116869748097,32.95398928997546,24.664692815460626,-26.968565505228025
800.0,-5.294223940194492,6.8634815927511355,-2.2099576155598895,-27.302684493171153,-21.69053296659232,5.312090665527057
820.0,2.5274662198356483,14.418297446233439,2.7053888024657935,16.102573857713317,5.109502647856059,27.007375203971797
840.0,1.200286399200584,8.940948269412798,1.625965654725049,-3.8236739121450385,12.838179429596487,-3.3598659509932602
860.0,-3.9823114200886613,6.2163199572860774,-5.756097008334709,-10.595560003131919,-26.07007755866974,-32.69238540884972
880.0,4.914253693154965,12.619339892824039,3.2296118319221554,18.679972017798764,18.376160042738775,-2.3994894386917394
900.0,-4.591764440338589,7.97296245600145,1.091249930150041,-32.90476818813458,-5.761853810447214,31.34740563923897
920.0,2.654102385542394,15.011785591336047,-0.9080588065781378,36.29763603966147,-7.048951217131325,7.451394889543884
940.0,-1.505769039918295,2.648153078583442,1.4725199053234814,-36.86201371022247,25.68663324280212,-27.878523911688063
960.0,0.8841591838611076,13.21880649463234,-3.9558828186646346,31.893810346035927,-24.763838654620823,-10.762138376262541
980.0,-1.5572953484823944,8.634872474869566,3.2974925762806477,-22.16366397930455,7.912156409166283,31.445483293711238
1000.0,2.4947743669896814,12.395015377443212,1.8417443729472036,8.584144432334114,7.775777369530905,11.293302310173127
1020.0,-2.403141301682089,7.9517980493249425,-5.096239208167291,1.2950494100984287,-22.613799240358503,-26.21604584374021
1040.0,0.6852171076541089,5.994492682936971,1.736509654984195,-15.442745337289576,24.292079885592763,-15.856660947491914
1060.0,2.3034615754429657,15.293552450814937,0.017808490344381027,23.075737715190233,-10.762739424793478,23.51833977450008
1080.0,-5.319873089325667,7.149292741074415,0.1250253677115476,-33.39678024282669,-8.625775207310577,23.62750710709716
1100.0,7.0829884903261,13.102693726556794,1.6881427692346849,37.03124973647911,21.277600932554307,-20.46058669097602
1120.0,-7.046001244996992,3.4060052589022964,-4.84900527878814,-30.211160526125678,-25.81823502504522,-22.566075996652604
1140.0,4.546005121603674,14.661496606584773,3.1673994501239586,25.292497572317693,14.449905905507322,13.280105904990709
1160.0,-1.2565641555493408,9.300826674734267,2.6094608859740314,-15.390422953909528,4.534970790047319,26.607722170767435
1180.0,-2.3284506637045945,9.220779754008914,-4.025858491028434,-1.7132582851774987,-22.431278425435387,-13.255925451883543
1200.0,4.158098912664232,9.182758446668537,1.3562615526451618,11.243951716670601,26.40375440758231,-25.3928341106497
1220.0,-4.9650925533441095,7.3900217238911825,-1.607102265661491,-23.512440018651237,-15.089148951818288,8.615767805120294
1240.0,3.6695096995404035,16.467779825641404,1.5610666822194945,29.946777128248133,-0.21413358334067079,35.545835870401355
1260.0,-2.22810211451855,4.637154511516328,2.5023783189291553,-35.335488531250576,19.67005025028264,-2.592727653603661
1280.0,1.3480943185578664,12.400795348006083,-5.6262570269093715,35.57322743048215,-29.105148164991697,-26.87730531524714
1300.0,-1.5230067832250844,5.451029154289113,2.078677719741406,-30.60645411915464,15.119319029161677,0.8340021468007444
1320.0,2.5176864605248586,15.062813189358748,2.030878600466281,19.944830400972037,-1.0407172529582964,28.858434921416396
1340.0,-3.26312516584871,9.166993269148696,-2.051876898419845,-4.956252232261933,-18.92036121733028,3.9729170961428344
1360.0,2.664982702233644,6.362996033020605,1.1604359770704504,-6.042061367719572,23.764065230314724,-29.754115040663713
1380.0,-0.02354975910373154,11.810370488881713,-3.2859972693474644,15.683679469068633,-16.764310340906153,-7.096332247700161
1400.0,-3.387459532867469,8.430842593488526,2.2585341194398945,-26.237929640720452,0.1399361916854056,26.422946255058868
1420.0,5.77319589879417,15.658706972192693,3.07533145834746,34.248970408007,14.675049318751899,10.967564502045771
1440.0,-7.939957643818681,2.538210283723198,-5.143583052399489,-35.335856643386514,-26.269727088470187,-25.3361519018587
1460.0,6.905265302078368,12.950817304091906,1.6011846410195938,27.39177013796394,20.415620793486045,-17.93900262340221
1480.0,-3.880058765756781,8.485192901616061,0.8450854089768843,-25.44278152260049,-4.947027921050536,22.352990309343326
1500.0,0.2067708558301602,13.259312605044133,-0.6691166987979413,13.888510332412658,-12.796350741183842,21.53117215111419
1520.0,2.5614105631619077,7.8247527370284935,2.08750257115979,-2.6694351740896813,25.609086846166022,-23.03002489842871
1540.0,-3.911534564269658,6.294625148022547,-4.523767666253562,-7.070511436809067,-17.50551213851803,-21.72886463528618
1560.0,3.419554902854173,14.824557107142418,2.1805951007146454,25.897506166364,8.152096469281144,16.57772849258766
1580.0,-3.0154819725894555,7.390343821139601,3.601965444468966,-31.404440457815852,11.102622054529737,24.072615599497475
1600.0,1.7738176150578708,13.52467319555466,-4.4472750781041945,30.811926944268585,-23.768416855909074,-10.494453357378395
1620.0,-1.7156077571338066,2.8064650106615368,1.1630775833960048,-34.70900264643417,20.56179417326813,-27.98209659492492
1640.0,2.6493682660378695,14.729694422560444,-0.8634206658351216,29.762811292055993,-10.324777342704168,8.915887661678564
1660.0,-3.3299944875164087,10.010458347373145,0.6986483156299406,-21.838110841364024,-7.3515254681008155,33.07217781358401
1680.0,3.993567070940715,10.304032533286094,2.933968579717678,5.985836796120579,25.47778369817959,-6.768953757961184
1700.0,-2.0107009489983922,8.178274721734585,-5.228786912322652,4.8489841534844675,-25.70714595453632,-27.884955294301747
1720.0,-0.9408086407167155,7.382734240318707,1.5863236345775105,-18.718185905999267,5.645667880162524,-1.004447614679274
1740.0,4.532919972186074,16.359418341748494,3.1284510610677136,31.2577298947546,7.516778084112267,25.777031091008098
1760.0,-6.50446621454552,5.74921238237093,-2.737206917658963,-33.72186776785892,-18.632539089589294,-0.07777789882264274
1780.0,7.011173926181516,12.453326948077436,1.65026955174336,34.2116321315941,23.320887547325512,-28.387402303386473
1800.0,-5.700311509386071,4.625241868143784,-2.300556261615668,-30.759825131241957,-12.815097934194714,-3.8596331055010817
1820.0,2.2698102783951537,15.80775121834219,1.3302477611305497,24.651596143030147,-4.157065474158576,28.574521812226745
1840.0,0.7590834375418117,8.441972727815752,3.3541634619947183,-15.243977957762745,20.966110195014473,9.59423646521243
1860.0,-3.0317910789358713,7.78594924797296,-5.524837273491462,3.806507043112138,-26.208503466184236,-24.591882787167446
1880.0,3.6136971930317228,10.378871592096429,1.2072058960712653,9.135440237973885,14.270779474819953,-16.810627541886674
1900.0,-2.863573476304058,8.704279705089881,2.1838196239644265,-20.82093264904477,3.6866287612827127,24.83436861742568
1920.0,1.4798919715909802,15.888110003925366,-1.245702594918816,30.76409334783159,-17.63076532872088,14.752511491240519
1940.0,-0.9760260689514775,2.6339522547413385,1.6798609895301053,-35.19257947706499,22.286374363975483,-18.70331854190156
1960.0,2.433166456772876,12.695465335055895,-3.8777173347017335,31.68267896489291,-15.269211879072007,-19.282759737477353
1980.0,-3.9607170698599004,7.607940721780846,0.807787382223685,-31.004707360893587,0.5087474065220452,16.539327558196227
2000.0,4.4078173031249,14.343912583043595,3.588538930124443,16.653395760166667,16.9143563921236,22.80999943620145
2020.0,-3.9324631073461185,7.349727226354589,-4.538990483703229,-6.616842716904963,-26.651155293338068,-12.38445215948829
2040.0,1.0944015546735286,6.559657465433568,1.003983142275571,-3.794339379117201,17.418552173709912,-25.115157367410095
2060.0,1.7667879035823115,13.812486117920608,0.7224108530220066,18.03669817782171,-2.371354778274294,13.511249007411099
2080.0,-5.547558669087195,7.698529767602449,-0.2774819135702334,-32.33551587847488,-16.01507814036065,26.710314640012275
2100.0,7.204822420899574,14.219062415032502,3.216986504282376,32.639454998025066,30.518152437546615,-12.102436394729661
2120.0,-6.946466807721335,2.8443815064762825,-4.839447278532816,-37.427947552930476,-19.31469153163159,-31.51074172705242
2140.0,4.32677408514702,14.532520198819235,1.0973485610764964,28.63130625193371,5.154076344750706,1.0222429278781058
2160.0,-1.2984380457179645,8.896648428118024,3.9145072424223764,-24.707637419071613,12.519457791221901,32.75737272710405
2180.0,-1.2901862325447007,11.353890328663592,-3.2786651398122224,11.469188945727874,-23.76754032887494,2.7802289167332166
2200.0,2.6765974296414585,7.219343849173069,0.8890986998668243,-0.11380438567006379,19.07272949054949,-27.697552686345627
2220.0,-2.217146645941215,7.441583656246276,-0.9402203501623911,-14.68205346475832,-4.993186218442092,-6.452993641671874
2240.0,1.6726610401480995,15.755747479560739,0.329825475542458,26.45305818110411,-13.986615490120885,28.000104045016794
2260.0,-0.9668934205346995,6.143847126406845,3.8568262650573124,-31.271697224074305,21.2916071209732,5.203691328698196
2280.0,1.6931620824913185,12.750931300376674,-5.1445783688268,34.06702548582976,-18.89912408885708,-26.39498417921091
2300.0,-3.481437123283159,4.077326494864053,0.4100734542842081,-33.29105564861181,12.040396344502685,-14.359429323393984
2320.0,4.83822880085251,15.962950713614442,2.998910991555189,27.419052884844355,10.532589067000455,23.651144010419074
2340.0,-5.111088927060307,8.804903711540442,-2.147974264838565,-15.474364642518378,-22.960063622497188,17.862168273643743
2360.0,3.4660416321071223,8.309791614690386,1.5706435447033,5.05372367504369,26.752716176593182,-21.23941566610919
2380.0,-0.3173722995812741,9.3857452242299,-2.598547213403295,7.282786121299171,-10.826113703364028,-20.572094235639312
2400.0,-3.4793775531432867,8.81911665284799,0.43443384259299855,-21.82107373857162,-5.769858456424779,23.62957254084951
2420.0,6.362478085837882,15.820439864302124,4.648981312936519,26.507803183242757,24.329256590864173,22.63564678070343
2440.0,-7.012926561657343,3.509443125893512,-4.031215767246456,-34.33316333542842,-24.56068240404646,-17.173631583791543
2460.0,6.1459678041282935,12.32952152332698,-0.0028066562729621714,34.77352818719656,12.279362901761083,-27.109204040213147
2480.0,-2.945717432286346,6.44189603904871,1.3335735426238433,-31.443199690160746,6.22008773627697,10.291021162578875
2500.0,0.062147253257509416,15.33791291940032,-0.9949885943263796,24.96781833391232,-21.37500789597746,26.050829490909074
2520.0,1.4750619546918489,7.912199519195284,3.1234394085434287,-11.210729472835986,23.224903925958806,-10.102185870597346
2540.0,-2.081752556269135,7.036587163824793,-3.8764133182671934,-3.031127714617544,-16.760126713182196,-28.659812762958072
2560.0,1.2870924086110567,12.228516233312453,-0.24875549453030024,13.031214710152945,-1.740839975607429,7.266429729117796
2580.0,-0.8697748532390494,9.155117126517993,4.388600528358088,-25.38018636427531,15.390885694293855,28.894438740278442
2600.0,1.1512227207066483,14.545508206247074,-3.7771663814825414,30.06046296392121,-24.945778133343683,0.8653456416415374
2620.0,-2.3061187907220075,2.360749317638078,0.1853404083420526,-34.18446101047616,18.152873552809876,-30.41487031689435
2640.0,4.489602465927546,14.324530819820835,-0.17707698875843933,32.30068180832963,0.525515935089761,-4.407610477071613
2660.0,-5.397362744205328,8.609449321412232,-0.6300907227673588,-25.40039149438619,-16.250932808380202,30.023820089439162
2680.0,4.9734685448392675,12.735907563893855,4.179685792603774,16.56569746608702,23.59229178915981,8.62203871249662
2700.0,-2.740258280824417,6.884011096145484,-4.6365975165607285,-4.751771310246378,-18.448764557491145,-26.127978219290434
2720.0,-0.9776382923583407,7.509178736808177,-0.5970139979909717,-5.178917489617716,1.5569170193360828,-12.893930448459335
2740.0,4.421792773100705,14.783258929341983,3.6404047092303093,21.599400735114273,17.616075346825202,26.185407236336303
2760.0,-6.689611996675207,7.086425972709408,-2.2845780980461328,-28.3009626689448,-23.07289243879288,16.70711858217419
2780.0,6.969317094433412,12.744197206433936,1.1423526815729388,35.480877700706735,20.62274074546436,-23.851996602654502
2800.0,-4.610179047029597,3.104684618814459,-1.4648988580244728,-34.30917374638742,-2.6430854050783843,-19.33382338414006
2820.0,1.918499542353368,15.865795551474255,-0.45863476616598114,29.325414868956138,-11.506048073912265,22.150541491277423
2840.0,0.3742040857890123,9.054468992815687,5.097803955779663,-24.120878983867435,23.618752224077415,19.232274427326807
2860.0,-1.223166793959598,9.673024121691252,-4.292432835996417,9.073067626329061,-21.83344402593201,-17.474851069757257
2880.0,1.2973152111277617,8.588444122629419,-0.9256110810302779,1.5983618731985574,7.72791285754807,-25.431055625457752
2900.0,-0.26188828401156394,8.52464976315698,2.6811700652262482,-15.543926290098213,10.544345609641276,15.585768333341203
2920.0,0.6066202816963492,15.953244861536536,-1.7224138502268105,29.80920781192882,-19.904339582620366,22.996395091041798
2940.0,-1.0872826305229835,4.14929148565296,2.7018881989258547,-35.18761912868772,21.100618334009532,-7.457016451951359
2960.0,3.2319384452346505,12.310651468418289,-3.45291577898217,36.39848755500404,-8.553628292452586,-27.477102184888633
2980.0,-5.394712235051836,6.207504245183834,-0.8993341487883004,-30.31091228574001,-11.075652677735942,7.734006937057429
3000.0,6.296597474310721,15.980128267674244,4.904361328666177,22.151100248023212,25.344234849856733,27.071620493582103
3020.0,-4.698298382564144,7.7385172295089815,-3.294390868986348,-15.101456909368519,-23.234176519160794,-1.0647773203357636
3040.0,1.4817302177769254,7.662495568936499,-0.3713495636274122,2.669043355685006,8.865210290393087,-28.465530365036305
3060.0,2.3013363810541354,10.657879613797649,0.7149814173675375,6.515632449759282,6.737732008852657,-4.808306209010849
3080.0,-5.375075169858758,9.281358740861114,-1.0857436013696722,-21.294899242724714,-26.12370423050289,29.234025722418934
3100.0,6.672745008880769,14.53284431202206,3.8988969478398716,29.86459851408465,25.807425296474534,8.25303226766107
3120.0,-5.579999144303171,2.78330400229723,-3.7026487014656784,-33.20660388590437,-10.271441904576923,-27.363630469050282
3140.0,3.8668017689307117,13.548899093195217,-1.1574946708461415,36.380736041848905,-9.88387323568919,-11.94865323880204
3160.0,-1.3106461045799063,7.734724962555387,4.886223981871634,-28.272292179177626,17.554328044536362,23.162806189622863
3180.0,-0.037374878569716996,13.893825960818608,-2.4983505522147307,19.35743353622345,-23.844705948089686,12.563049877162312
3200.0,0.6311075789821318,6.071286073682265,1.1820594666066913,-7.718441107960345,15.388670822599176,-25.928254372759895
3220.0,-0.10370780684796152,8.001300385805013,-0.6859907176103305,-0.7056927097401875,4.536042803253745,-18.48670289607293
3240.0,-0.5665545740606944,14.133673555677579,-1.1937241073342286,15.663396746506999,-12.43328294178908,23.800555299179084
3260.0,-0.21971998408762858,7.914753305561273,4.776414098421471,-22.669104347978255,26.0621067299908,21.03614847930796
3280.0,1.8207339565184253,12.51485841317841,-3.3795376789362357,30.920693331512716,-16.947609027194503,-20.622821902280403
3300.0,-4.7748801587992675,2.6501351650089076,-1.3800900432942458,-36.979704386135445,-0.31725393948496705,-24.83683737309159
3320.0,6.21213609728496,15.452151055578883,3.260911737052859,34.76040579785639,19.041117153877114,14.176114800402633
3340.0,-6.094937511318916,8.801181299713537,-1.6403431674392284,-23.295209938216058,-26.472495521496413,25.58531471112349
3360.0,4.270311682521134,10.721393071696596,1.877556951569796,12.575802579738191,19.462560372809335,-13.725635119002822
3380.0,-0.37115460036016634,6.716985280028957,-2.370299388328382,-2.3701058840208775,-2.076495119049725,-23.976206310748456
3400.0,-3.5657504881396065,8.979230678534707,-1.7633522016068508,-9.190309714046304,-16.791607065171345,9.860745454525418
3420.0,5.88234523085286,15.26832125890746,5.325496719992404,19.13614246827766,21.484223313642225,29.83422420350094
3440.0,-6.258265964496736,5.198258549500777,-3.2676061991497165,-31.773553963334294,-21.512416042874552,-5.033119272380986
3460.0,4.8702597572606585,12.411475839799383,-1.362768405542652,37.37431165200591,5.131636774127975,-30.280221672378715
3480.0,-2.5337723046948035,4.915457981235996,2.0506963771333373,-38.065138416426905,12.994084022407213,-2.155714051860748
3500.0,1.1522798191433465,16.214899288995447,-1.6407648297393225,27.46049715736705,-25.93645976394502,33.18315109916738
3520.0,-0.2649903031363076,7.162009209692274,3.839202951318902,-18.00493206073879,20.93627003953835,4.669191839505423
3540.0,0.39015888855635783,8.522006961896325,-3.135582687913864,9.795813461620044,-5.602467151328515,-28.86473239211066
3560.0,-0.8033227260584228,9.531118662392775,-2.2348055804135902,3.5481595061558244,-13.234684091885665,-9.239620033013766
3580.0,0.42037072392996433,9.497884482676527,5.492133266720052,-17.38397146067251,25.3444213096836,30.077207614952883
3600.0,0.947014599855649,14.972232697624104,-2.2335686238030887,28.41355550664146,-25.25874092115311,15.77257053647015
3620.0,-3.022289523425175,2.6798531627753177,-0.7934007569636976,-32.22325432930451,7.5285528236809,-25.209939564305962
3640.0,5.521543420183936,13.580150662725543,0.27137861080867404,34.42667210300031,8.90678309298871,-18.39196080210202
3660.0,-6.722430752957637,7.115518117512227,-1.7769833866511864,-34.19042883967205,-23.239604704431216,20.563034031233823
3680.0,6.198402171019374,15.106939174262472,4.530664774162215,24.465455045196546,24.58457221741043,21.800573739361074
3700.0,-3.2504497167939337,5.901867461291295,-2.7678069625752957,-15.303310963071661,-9.967208000701882,-18.34051707658207
3720.0,-0.9492848499842695,7.561951886509471,-3.126547692793207,-1.644826013939654,-6.076736125008085,-22.980777940729897
3740.0,4.153985572268282,12.800101772942458,3.8581605686794056,8.087157155338822,21.74247352781401,17.455382837407633
3760.0,-6.104756529026921,8.89249802693705,-1.7042885751014878,-19.82054485967001,-25.19792066990285,25.854711933997677
3780.0,5.698288213940083,12.980813212006849,0.9585771491178618,31.702433405165348,10.048443521850812,-13.781603170975433
3800.0,-4.090198539888982,2.861199826654391,-1.0684077546144093,-36.53547985247112,0.928785436012804,-26.902286013760957
3820.0,1.5633537475863264,15.502856560891832,-2.4544916447442504,33.23797218309258,-21.067884537088542,10.437954132083487
3840.0,-0.7592146910620979,7.862135814968122,5.325734261841025,-29.24914605775829,20.70659658602271,25.657675267225255
3860.0,0.8058001557845829,12.140980466377224,-2.2147783742172216,20.822792666765274,-15.785971809432448,-6.194774481677046
3880.0,-1.437762619354261,6.305743183102037,-2.4479638666886174,-5.647002070813729,-1.643129379977361,-28.376312582931288
3900.0,1.5889628767784425,9.026741826536703,2.718944105913298,-6.088004406931169,19.575355473303926,-1.4127828132604834
3920.0,-0.5810661253884923,15.216432079627838,-1.4282405319663323,18.46833450932579,-24.272562087109296,31.924077614015673
3940.0,-1.645050855796066,6.290790858393486,2.5871092901607065,-27.89199613474723,18.941482283266897,2.6274211658317883
3960.0,4.251481090937816,11.97084135388363,-1.4986032200338153,34.75109057591757,2.574534401150415,-30.326180729465264
3980.0,-6.7567898709186585,4.3344235102452995,-3.0651272752990613,-34.44503927924229,-14.652278886221973,-12.594087525063632
4000.0,7.0966022811941105,16.57752169850676,5.6855490786981475,28.12722809149944,25.937748469734004,28.033943625104023
4020.0,-5.301674508782217,7.249271733023971,-1.5538358392938947,-24.71552329515579,-19.104456391340058,11.171114888213603
4040.0,1.7647105788096202,9.091554230370066,-1.7954529921843612,9.16942174431373,0.47684072003905276,-29.92707579402687
4060.0,1.8901368671856988,8.260799428561471,1.2166159981848723,0.9983826659242255,12.42480031780408,-15.534642715891394
4080.0,-4.547010191084551,9.647380176699018,-1.8761230320185116,-10.311066869689455,-25.763462284342562,25.28754414704895
4100.0,5.798477480441287,14.791035689507831,4.376460415984402,21.381270214206946,18.157472128619425,21.104472370759172
4120.0,-4.464146334105345,3.4229903046708174,-2.24443368661092,-32.79439790995111,-3.1669497920124168,-21.437837758664568
4140.0,2.8131227134555776,13.179571966023158,-3.5855347477700983,35.19898522254513,-13.927786137380508,-25.494731782354066
4160.0,-1.8895730265854365,6.383934394468573,4.60622999114152,-34.517637212925266,27.09741613345637,17.242288222944996
4180.0,0.9918535174095038,15.82232537929679,-1.6422437974375699,26.122491896395978,-24.49029112445872,20.99968644761757
4200.0,-1.1411774149716116,5.962690582101075,-0.2559026481234761,-18.325202909090628,2.919637206990541,-15.340329325293563
4220.0,2.6178148359471125,8.584065448271415,-0.160339476978401,4.631193859397893,14.726205216152021,-25.593179171991288
4240.0,-1.5719340080485475,11.953484454503469,-2.6357528815092315,5.327568410780785,-23.174929538411646,11.022885667873474
4260.0,0.07833185358909386,9.321919859933477,5.059018634776061,-18.17560153990825,24.44201515422905,26.92116723414283
4280.0,3.1270985984520245,13.156535212081549,-1.6393837002824763,28.15637144907013,-8.791180767089816,-4.596459476855063
4300.0,-5.538389092402044,2.525256119288774,-3.3537962774144305,-32.48388065278468,-9.350224102472092,-31.638970287674965
4320.0,7.453236704297799,15.067632686288075,3.0894060953913556,33.62049950248999,21.760958843132755,1.4244159685837077
4340.0,-6.772927683617962,7.890992931440803,-1.1460499241306983,-29.805481496968284,-19.113315799935865,28.327355862853608
4360.0,4.099380434305529,13.231441845147426,1.2589541220301554,23.036085765664517,13.000455242383833,-0.5720131402457977
4380.0,-0.6581518441086568,5.654439927624752,-0.846240712936539,-12.896075709951866,7.52284605688691,-26.985496475818184
4400.0,-3.114373677204299,9.323409745346172,-3.5285101730302633,-3.5380047316753465,-22.383540375834297,-3.2522367738444373
4420.0,4.576835501922116,14.257706285926307,5.621642382635102,13.642666571713727,22.462816449030335,28.478223475017042
4440.0,-4.719996884116102,6.93743964766821,-1.1401131516567993,-27.924795610791925,-9.381057077942648,9.115652057650825
4460.0,3.632944402141809,12.33661613859486,-2.614386415758369,31.657280347126772,-3.080999374926528,-30.04328817716941
4480.0,-1.9322923198873274,3.4361218663128357,2.2879006570056117,-37.82517147607932,22.552908905576174,-15.70301025345853
4500.0,1.342529992786597,16.790323762502936,-2.0107257430953713,31.925806186368483,-26.13988975137688,24.9511628958074
4520.0,-1.7854829185158985,7.7250009265249036,3.074329622726029,-28.491031492521582,14.56762634505568,18.013434680289336
4540.0,2.4545786176482496,10.627404414806122,-0.9594633888225242,16.906906265165727,4.538677846337156,-20.416999761314067
4560.0,-2.921971310089365,7.225007344462053,-4.2409061833100825,-4.439474101849979,-19.800056523554083,-23.736631329366062
4580.0,1.8292152444361605,10.234250600657331,4.939554786423629,-3.7914668904213356,25.04673781913646,16.41014596081386
4600.0,0.6236647740542035,14.726815932665913,-0.7933583674275351,20.081252152219808,-16.998843143558677,25.30122647839619
4620.0,-4.0311813676958606,4.201128150477828,-1.0629087972158262,-28.869644853783846,-0.4096163497613322,-16.898622470709007
4640.0,6.544267931317372,12.123995395759948,0.5902721931113015,33.4798328763313,16.552400736003648,-28.57778096912514
4660.0,-7.757021542931281,5.844301488267595,-2.92746495749747,-35.21738423123734,-25.278081950500123,12.583650695557138
4680.0,5.742985064298182,16.76862295146379,4.305729052379614,31.715171035190966,19.94324836242953,29.390544399608817
4700.0,-3.0258706660477164,5.9937463377652564,-0.5631893572166102,-25.000698139305854,0.7444199631293837,-6.54263115266572
4720.0,-0.4523986379659247,8.869812516944402,-4.228598655706871,7.445862401000563,-13.43154065612358,-30.858217615782195
4740.0,3.626722984268362,10.53679554344446,3.277524606632866,3.880407694205714,24.756539956432327,-0.2269131018136501
4760.0,-4.489170346430407,10.15016396414267,-0.7123005127342511,-9.049399662465698,-19.056253942292095,30.50059168114829
4780.0,3.6810321422087795,13.772397867624864,0.32327942105518026,24.028515952379603,7.2409683152461035,-0.5347048444946437
4800.0,-2.8141773817457354,2.45312495055674,0.2109370889572785,-31.392448663197964,12.69265887794689,-29.911123436681216
4820.0,1.4116788359812187,13.988142524053972,-3.9273979149414897,32.67816491813167,-28.039649337998274,-3.977487837365982
4840.0,-1.8115114121796214,7.196077421025606,5.072790802831952,-36.449430659720356,21.27913063551732,27.67928186069136
4860.0,2.824966065848397,14.271542430525345,-0.24181449599381213,26.1176271794418,-8.51172684166012,3.0756773919654927
4880.0,-3.4697401645323978,5.1982513511359,-3.338797175827051,-13.548389847509238,-12.266547250585143,-24.003689230083765
4900.0,3.40497274373883,8.980163884915827,2.4256877468806533,6.061411233284166,24.18341701709957,-10.035492462691666
4920.0,-1.5986588459444409,13.537572142013087,-1.341108196915651,7.774738656514475,-22.22229992384249,25.606582338380694
4940.0,-1.740602339951988,8.21828581776805,2.331146055624777,-23.66500954579422,11.293177183863941,15.816613161728311
4960.0,5.1201477543753935,12.439059054912905,-0.17107680711989678,24.348760000073362,12.203009800947147,-23.972335840180033
4980.0,-7.231394162053388,2.8199579981910023,-4.532321133707527,-35.445388348800876,-21.426716608987224,-22.526549123651993
5000.0,7.4315301672194485,16.195457683037414,4.2297700496261,36.32068265305661,22.73261173535574,20.053185660349993
5020.0,-4.668781177465911,7.6481861183117035,0.25165412316351277,-30.009800130746466,-9.48601161888584,24.770501367700508
5040.0,1.8369731597070906,10.98738118741154,-2.3518784568534206,21.952035549419318,-10.474233314460408,-14.913538701390134
5060.0,1.634250156041382,6.7913798255378195,1.434989832561559,-12.404909686722315,21.6903829018584,-25.977485343104288
5080.0,-3.108065213569997,10.612784968590518,-2.67794453136226,-3.5010377477840646,-21.574888255555273,15.344611285492336
5100.0,3.2214102251229613,14.42513231059484,3.6436624896793908,16.88140128306451,15.026236427334913,24.454970713616706
5120.0,-2.7383915776262997,5.291140820394117,0.4641866802083976,-27.930527936606776,4.715092622756729,-9.911817074516359
5140.0,1.5721650007003365,12.152241855782199,-4.816092529501656,30.961316531870615,-18.392336256405635,-26.392480738148056
5160.0,-1.4637245778512296,5.1849292454482026,3.8231739889436884,-35.89628474797489,23.530071738008758,7.123289847125667
5180.0,2.5008803062159126,17.064571365924504,-0.04939189616732152,32.195189502157966,-12.463152373664528,27.459293975502007
5200.0,-3.633592213010332,6.197299376103183,-0.6077434061494635,-21.89988736179931,-4.824541197379466,-1.456087829184048
5220.0,4.271786892437173,9.57085370941782,0.7203488296979577,19.4580248865129,20.275199844294807,-31.814738411085692
5240.0,-3.6667591735220117,9.43004962700807,-3.636989862811258,-1.4162887948249236,-24.180431994268332,-6.9442332509645635
5260.0,0.7382160890149478,10.992464519139704,4.32672843658245,-10.858321361724714,18.604305034899607,32.29446222009242
5280.0,2.739642056384435,13.122386345981958,0.9128151259763575,23.18643866788232,4.399060718202872,7.750497698987412
5300.0,-6.059003955361147,3.1821029855717264,-4.634601422711961,-30.138638215250396,-18.65459939433394,-30.741501754446684
5320.0,7.477171835775601,13.456983322553056,2.848990895689878,34.248096753415076,25.52529479523289,-12.663708927126978
5340.0,-6.5547235326905255,7.239002924538132,-0.5911105955802425,-39.109805449619145,-18.327141361534117,27.705311904943745
5360.0,3.810725064118513,15.434519763672727,1.1075340468682706,31.19874194606464,0.7119828895338851,18.45319933800304
5380.0,-0.37395513944505876,4.759367394279537,0.7647841182077282,-19.01730386515776,17.091798398326343,-23.904037200950953
5400.0,-2.1705337961639586,9.187764279101154,-4.881453584231871,8.656204254358151,-24.196064578342227,-19.20966640502742
5420.0,2.9275779387998826,11.927691039175123,3.8243358497536772,8.006283005315304,19.916448625381932,20.172186819627488
5440.0,-2.5164826450670805,9.31598515466113,1.1270881523482004,-18.31969943389087,-2.4057652937256524,20.928296550132636
5460.0,1.9234764813152032,12.095605252985145,-3.049534547132052,29.92974340719488,-16.824342341699882,-18.839610043072962
5480.0,-1.0890747456962009,2.82677850812916,1.8622446718897026,-30.82730991476955,24.705161315706327,-24.697672414785096
5500.0,2.0602878741823787,16.004996353454015,-1.9189211013481464,37.837346824269176,-22.021084701467554,18.161939845452178
5520.0,-3.2478762256627003,7.080994181365424,2.526586382387053,-30.562675791376616,4.231835693495123,28.645624419581598
5540.0,4.879824958217539,12.429921771255891,1.3525956099237049,24.435759033447624,14.737625793692212,-8.859698111878446
5560.0,-4.467150578368554,5.600817445650644,-5.167821903044661,-14.845708030236509,-21.434003790717238,-28.885246036306192
5580.0,2.7214472773215395,10.45886393904485,3.6854613848083053,0.17738543475989177,23.183780120904586,7.936478194646963
5600.0,0.3607337190010024,13.75913237714703,0.9989134189902233,13.103608189695983,-8.75852659102275,28.759640951905933
5620.0,-4.231423665085135,6.717063754345128,-1.815239199066681,-20.836466278462908,-10.541308707373847,-0.3532411761549046
5640.0,6.894620941452687,11.74125861001146,1.0765498093045467,29.54545462533036,23.41074407798888,-27.774091559992076
5660.0,-7.176782356803231,4.4233923707171146,-3.459583351032653,-36.68385185339452,-28.803095152000775,-4.856876153884491
5680.0,5.533031073730602,16.96547537026261,3.239331847880016,30.540379605497044,12.966520292363118,27.465382351001555
5700.0,-2.7761844908306372,6.453898136689601,1.5577515880687356,-29.490295427768043,9.755120798524523,4.611923956585648
5720.0,-0.13044781033266528,10.309380067060644,-5.13570160603868,19.7050289781463,-18.21987231552655,-29.367991643253788
5740.0,1.6831330173715855,8.092022822083228,2.5098474670828113,-6.887977855375158,23.52918826527755,-11.02441929453006
5760.0,-2.5116396402656505,11.612394339819831,-0.25187843536303556,-6.112355595413309,-15.275666683397668,31.68784326078544
5780.0,1.6371127166361739,13.722944201680349,0.1704077416157052,19.32706055534709,-5.686093154408655,15.226798584404115
5800.0,-1.1121557056853093,3.3960528960851035,1.0380180461658532,-27.56573283068716,20.534403872839192,-25.41313999316912
5820.0,1.2090189748667575,13.05824678444003,-4.364205801017844,31.007635486014046,-28.2359705033934,-16.25587984192437
5840.0,-3.0385391728293523,6.662002543800338,3.7415858321547932,-35.71864650219679,8.672405156129226,20.771589099627104
5860.0,4.720382520057005,16.06030272711021,1.9680909440175183,31.972590204627842,8.253879472884725,21.03578087103205
5880.0,-5.300447956136677,4.639325240670204,-4.284585774133156,-22.588543906339993,-18.28557993746861,-16.21449790915926
5900.0,4.6505024992065085,9.892068678597198,2.09121381257572,13.239501951719609,23.31366867399156,-22.48799732550208
5920.0,-1.996438208162582,10.914845964823908,-1.0364983610900478,-1.1113827858764047,-16.434814320464316,18.878219697200876
5940.0,-1.569436584632959,10.533309865924823,1.8457510905833507,-12.484141419425873,-0.47474725670917195,28.8677398410582
5960.0,4.968719747782378,12.140498479247212,1.5020091626072654,24.492806594732738,17.752845424985367,-16.60425067035839
5980.0,-6.783017396105764,3.013180461351449,-5.352512557995608,-32.3511804133173,-25.381441022367174,-26.928090173843536
6000.0,6.584868970094028,15.524832460772243,2.880038828882256,36.34021612237206,18.326051107356456,9.781260783337542
6020.0,-4.232173131490318,7.723535399960491,1.5524788381244012,-34.44932743095265,-1.1789404512628603,29.578768375251208
6040.0,1.4581459370945768,13.174746252427362,-2.2356243807568594,27.378328520797893,-14.883150744955456,-3.977855925891704
6060.0,0.5786428060005722,5.122658816702144,1.5352358012245975,-19.281960672671577,26.480125972264965,-30.07259096672429
6080.0,-1.3994271788266504,10.925384909936549,-2.588640807251358,9.615608238432285,-15.229085142446564,0.4140112090405479
6100.0,1.642523633083902,13.532309927642695,2.518139538810088,7.995598416228983,8.680801180571253,29.130113249810375
6120.0,-0.9577809171519164,7.416975432046683,2.2045972497727107,-17.820047489544873,13.343866106561173,5.617259996236522
6140.0,0.6231304013893673,11.089403977993637,-5.238606697580039,29.75656289084443,-21.71851634574949,-28.282537718606044
6160.0,-1.898373188114818,4.388268659008041,2.076757116178724,-32.00986726864362,18.631428121320425,-12.601515336004132
6180.0,3.9303493842023762,17.365906675573093,1.0628499491366799,32.15921607715426,-4.5447327094094225,28.250297881104995
6200.0,-5.668607515929365,6.5239528083766025,-0.40960822816953113,-30.55833574433144,-12.244313958891123,13.528546580394435
6220.0,5.774872908157008,11.215040299313873,1.4310173492109368,25.70857803832191,25.858967514538318,-27.20935755002841
6240.0,-4.427551747560849,6.891974966562286,-4.344782296899314,-15.735356753501627,-19.39974185379106,-16.94264457631415
6260.0,0.9270769465547103,11.548582886658329,2.7178164822966617,-0.6869116661638845,6.559131465031435,22.044671878292263
6280.0,2.9522884003983823,13.093759611455432,2.8589196152848237,11.252822360351653,12.875226536592232,21.71197901072048
6300.0,-5.955594873501963,4.399411065525593,-4.429554437184999,-24.46142298025754,-21.08141589682523,-21.50127797917852
6320.0,6.961576697778643,12.165559450940666,0.9557469949642288,31.97113509952337,20.304165840286906,-20.0014806401877
6340.0,-5.6152014674830895,6.1975691434808295,-0.2859506603737777,-37.3467232736591,-10.280042524574258,14.78620081808244
6360.0,3.0731287905462614,16.594361111843813,0.5008488171993505,31.972636679216215,-9.82933222118587,25.33905409995562
6380.0,-0.7794627400516876,4.810120686118612,2.007979861633016,-26.283695064573685,22.013917073930465,-14.322286552127489
6400.0,-0.08636969130757377,9.87529225510386,-5.359416026065299,20.254521037818627,-22.91639814254414,-29.427717712693443
6420.0,0.8544671348965974,9.563983217474899,2.4087526864826,-6.858667301746441,12.469513438762029,8.12532703531526
6440.0,0.04120576920740515,11.160700339018833,2.810092555121466,-9.182251538036963,10.297351628928723,29.93891315191979
6460.0,-0.036967557735117895,12.250947441445822,-3.5807272100405116,20.48913150765265,-23.253303732005012,0.23312919513764463
6480.0,-0.6472184884239436,3.278331838372841,1.2374006275533984,-30.75226148888531,25.33759250729616,-32.68127936760476
6500.0,2.4092342160490388,14.89957268494519,-1.930133134613757,33.82728970005819,-15.250794865630338,4.266947400341946
6520.0,-5.11968655152942,7.068509131121539,1.4429086486164082,-36.906684552605036,-1.494748161349467,30.782935662698055
6540.0,6.31260114847501,14.693802384130953,2.9687434883493733,28.158463921214693,24.184813013893336,4.242882340985771
6560.0,-5.998614351036812,4.106297139593989,-5.844239507675738,-22.30527363731349,-22.52030378611736,-28.259152828086297
6580.0,3.2901578446254724,10.64049184194016,1.6063708402541734,11.601381495320783,18.088623992769314,-7.9185022300344885
6600.0,0.16043278617710943,12.225669641530029,2.391983138225289,2.4739752377323416,0.5616248215693616,29.622127521823852
6620.0,-4.173434592493089,8.860313340960749,-1.8232637373169356,-15.812752958072473,-22.25596157471177,13.638570880579723
6640.0,6.6548371811941305,11.061012755601537,1.9322013954870885,27.150179731527928,31.038712377871395,-27.061015727680612
6660.0,-6.191663417111636,4.010606737672718,-3.917579880219158,-30.840523806328303,-20.353361220071804,-15.04927865346215
6680.0,4.535427778229346,16.77182385891786,1.62680600019613,37.547048929902545,-0.15670876609374906,25.9780924391586
6700.0,-1.9985656113328814,6.818632718053688,3.553925215044355,-31.921671668129072,15.760978087573932,19.142809895496267
6720.0,0.648435277291879,11.791814374032917,-4.785004443013543,29.72908646928957,-24.569606919551244,-19.163768182356236
6740.0,0.2742794853374942,5.695711317383227,1.2839404176228657,-17.444380978669045,18.27773744955858,-23.40512886317451
6760.0,-0.06694042072558859,12.084558850543488,0.584756096301266,5.985978736804056,-3.2076468222808012,20.3103038878819
6780.0,-1.1033622630438178,13.141221076396702,-0.6718642122925589,9.821094923639466,-14.569731248926553,25.206143241681175
6800.0,0.47508905955191894,5.448409503760376,2.645269775438022,-24.623253700513388,25.032140375596487,-19.03464205385047
6820.0,1.3697989442458898,11.76470922363578,-4.865152923306716,30.122020735287663,-22.0251801519363,-28.665979678249265
6840.0,-3.6867810407238117,5.890410027063588,1.4605237489433112,-29.590552775461575,4.289982209853838,10.97429679073437
6860.0,6.043610895545588,17.14899342927566,3.5935727628345315,35.10905558647105,12.45425520258309,30.314400648583174
6880.0,-6.693327550943893,4.947311025617865,-4.0007990739730275,-32.68641872057308,-22.611298007121718,-3.20256399026766
6900.0,5.470413050431121,10.205616350018563,1.2643595847915663,21.981714503632364,25.165460713686468,-30.379278969327622
6920.0,-2.0499028634775835,8.816484604655509,-0.8443552552374127,-8.628339718159427,-12.043545643804428,3.4554326649565623
6940.0,-1.7438762680824902,11.77990051166456,0.5206744083742806,-3.86667109579076,-11.88051361060361,29.966826265916705
6960.0,4.579846058144292,11.874396973039435,3.4304834019211525,19.251904456278524,20.4946213959471,2.607144764226297
6980.0,-5.877622007292626,3.7372436260055446,-5.182624551765454,-22.46066534630267,-24.817881423344904,-28.715617593109872
7000.0,5.431234105347628,14.05403154082202,0.8987625750256617,30.194743771413485,8.390607816516704,-7.729015168067263
7020.0,-2.947132104346671,7.343247131019592,3.195138985386627,-32.40741441339691,7.834252681137008,31.94817968512419
7040.0,1.5077305083325307,15.279866954122504,-2.4401554987863627,33.700891731837345,-20.572114625973555,9.432622160828053
7060.0,-0.40997513585317047,3.7349378820607004,1.3836189627533033,-26.032855422765753,23.68108156101476,-28.8285193050934
7080.0,0.9763465688398474,11.017950282304056,-2.5683486458616107,16.360923479796917,-12.456524625250262,-16.337976914389802
7100.0,-1.4133842621244692,11.309488868007406,0.780842296926741,-2.683218358712836,-5.221464771903163,26.360041559188847
7120.0,1.2977742298639636,9.681284749050882,4.1196219877458224,-8.552675343946971,22.39499670658489,22.57226600320896
7140.0,-0.4715440427279724,10.412101280502709,-4.798309649531234,26.243192400357138,-26.1643994101381,-19.23671409651769
7160.0,-2.25900477711017,3.632529003242029,0.7240349355102438,-30.765325722580776,14.637736660488072,-18.25765422857927
7180.0,5.044486137341944,16.266664289215754,1.6693235780901756,31.64187204025165,4.159443618271686,19.281519642296967
7200.0,-6.636985049488028,6.836220397745736,-1.29410222545763,-29.600988518381705,-17.95710111275755,24.618260222137778
7220.0,6.639092188267809,12.633857478573502,2.4010569281907017,27.28399531377658,23.56436245719813,-15.422537303080075
7240.0,-4.39512679808997,4.831700786383183,-4.201918411156838,-23.51651233599714,-17.744798606257195,-31.030071827065818
7260.0,0.8968479377948284,12.051357867846335,0.4153968909672937,5.881277494205609,-0.8964970530807663,11.394664395413805
7280.0,2.8613503436577643,12.771193715954729,4.178961492929448,3.946170733982625,19.094294170674814,25.837933597241076
7300.0,-5.434792540427788,6.894417530276828,-4.422724730089251,-15.378018740298204,-22.20854416351102,-6.917834304384053
7320.0,5.91180698697199,10.921195879867048,0.7905256743564106,24.069759593444655,16.70030216398549,-30.32658232199282
7340.0,-4.249271900015978,5.1837758935547384,0.24338846625551475,-35.88974738771421,1.447731049871435,4.087586436450116
7360.0,2.344335758066912,17.520476684484763,-0.40172203210670443,34.46635675856403,-18.689905715943766,28.22278161444406
7380.0,-0.8416035049992634,5.113329331689579,3.160191337575433,-30.359373799774463,26.324788785346257,-3.072549528399401
7400.0,1.2220796400725464,11.054025996228626,-4.519994981799435,25.87292307027294,-20.3619711826751,-28.991729365633503
7420.0,-1.4110786642208086,7.532654451785257,-0.07749433332026623,-12.128034532438619,0.5867414074904658,-3.6592543439825898
7440.0,2.106055622610798,12.761855887433201,4.023491278972914,3.0204240012830437,16.88379972011674,29.50091399306486
7460.0,-1.9252325088916615,12.129543691457073,-3.233350839090556,10.982330818791782,-24.197099421362854,6.415025543202767
7480.0,-0.23814404058261704,4.6412233208869855,0.8692085789202881,-21.716106542030712,22.03335196280541,-30.395922152529863
7500.0,2.985448093624102,13.067423992486964,-1.4223311899468047,29.093684971634435,-1.8941487753551707,-15.944237313421851
7520.0,-6.18852833154064,7.104572127655346,-0.26569554650188404,-32.7111286249491,-14.194734850272914,24.964673435176323
7540.0,7.092677303658727,16.17847812099882,4.818053353734856,30.737795662730928,26.381184186186935,17.507235254961714
7560.0,-6.401871792404262,3.634334325844759,-4.4822876292652705,-29.25586174254933,-22.41598984557189,-24.73726863447024
7580.0,3.4783098715473684,10.955765078480969,-0.20603284815129586,18.847681159245354,9.466821618761395,-21.893641403122036
7600.0,0.24038939116766256,10.643243262334371,3.2044164037332834,-3.323195325848949,8.547843896234728,21.67991506453579
7620.0,-3.2993919131677982,11.01279939269755,-1.5642353650934677,-4.196489001300284,-25.50725953200506,20.714977614750854
7640.0,4.4533083606954555,10.777181761232308,2.133370077630109,17.893943444254642,23.36097123612404,-17.066117332877074
7660.0,-4.443031380065255,3.7797837829256,-3.3389414464614466,-25.068827622558292,-8.848791621699096,-23.169354056147736
7680.0,3.199086566928988,15.833874593545996,-0.20092820426010033,35.228836669555605,-11.953374924309115,14.714674203164291
7700.0,-2.145985207242294,6.899258259118166,5.041402353860277,-33.6366103570458,23.0172108341018,28.430878643795054
7720.0,1.2427805312591074,13.658120396142715,-4.033705020337051,26.921809064286,-20.749358616211882,-10.069748265201419
7740.0,-2.2480332845033204,3.9359084285897934,-0.5149349981094825,-25.159361732351805,11.855606202332408,-29.254045010630104
7760.0,2.4989376450583047,12.116925206630292,1.1261420586537065,11.911146846367652,2.946650780670914,3.6570740088961093
7780.0,-2.8363375989177433,12.298321033878063,-1.1276956409871952,-3.8442603038206564,-21.665996712352037,30.712211326951525
7800.0,0.687954761314259,7.9354931762267995,3.1669123281820957,-16.444234640804478,21.632670790349838,-0.3605443222849297
7820.0,1.2972918890565397,10.63656191038856,-4.112739299104057,19.919116111642584,-13.77820093951067,-26.4303410968917
7840.0,-4.809254546874543,4.82862945144362,-0.9702281681125786,-29.138066022397567,-5.25303935287777,-1.577117469032152
7860.0,6.963076801956605,17.203386361175227,4.766864619827388,36.69670191946737,20.73326009917773,32.404761204647436
7880.0,-7.360293759175538,5.6515677138416915,-2.867929329500178,-31.947391069445462,-23.332182259154287,6.744662478990165
7900.0,5.714855177509192,11.331536084591185,0.25970540074523407,24.629716524622992,16.34467230985111,-29.67039645222115
7920.0,-2.0941886002672536,5.904120949106972,-0.8056679755153948,-17.551516228871602,4.103010516511834,-11.404360089050417
7940.0,-1.33214120003041,13.230972620621284,-0.7565659415222217,3.8922572684727244,-18.4145975677687,27.386914034562416
7960.0,3.5416440491594336,12.090884645048867,4.499743152815347,8.051422285114386,24.483579599308648,15.396834419238234
7980.0,-4.4103382065924075,5.333359665991242,-3.9060359009695214,-18.104281576040123,-15.872744533118839,-21.81184978949612
8000.0,3.685286497673491,12.201450923926238,-1.3097006237469497,27.03732307901565,-0.6015396432934651,-21.134880346305525
8020.0,-2.1852462988255286,7.027731024410933,3.8351877912999646,-36.82605676958923,15.31020606920216,18.862327302364676
8040.0,1.4559015950423313,16.56556740332105,-2.4858777555023366,32.16506690855111,-22.908725392022824,24.898358830417
8060.0,-1.6100552381796374,3.521885997387973,1.5884105478163921,-30.604065570709313,17.468090534226533,-21.973143603717137
8080.0,2.684485487644147,10.940279594620343,-2.093960273970163,23.26952525627581,-1.6768610947397906,-22.443593833755617
8100.0,-3.378407748296117,9.862503137554722,-0.8149152665255472,-14.338095102396682,-13.73719035304164,14.957366458704621
8120.0,2.736937258323028,11.286109492508752,5.307071797832182,1.239839780159404,25.72109723964395,25.89054055586788
8140.0,-1.0927965837996123,11.061357284157193,-3.314866989493919,11.84875635633774,-20.986216795599457,-10.997271043821756
8160.0,-2.408572873297221,3.801715962204338,-0.7656208888009932,-23.305751898757013,6.861842904753076,-29.991886776222604
8180.0,5.2579131254118785,14.78769328897278,2.136315374936902,29.837847061740664,13.771466802851508,7.994573371881245
8200.0,-7.445060405643779,7.255864026080638,-1.5190071119157733,-37.39440999168284,-20.97031948410268,28.026791674077927
8220.0,6.699728174963877,14.252150955237887,2.877505865218546,34.384417804552825,23.88007743912065,-2.35057732322191
8240.0,-4.255290677702715,3.5219763547436993,-3.163167822242979,-26.746000518864594,-7.736685945751546,-30.33724156921199
8260.0,0.9570858517202453,12.029127237884085,-1.7837795501676954,19.210612206132794,-12.934871729775214,-0.001850470426968176
8280.0,2.386377801660275,11.124752452341436,5.2533809082154574,-4.208737918116023,27.69461390844822,28.937555923339065
8300.0,-4.163342964948924,9.251476375636539,-2.602980738602538,-9.351871227148417,-28.19466437199044,5.432771455559395
8320.0,3.593750689822806,10.267566746334802,-0.6299883922746776,18.622397911228138,10.115930071496104,-29.924698708959767
8340.0,-3.052725143149424,4.8185161385719635,0.5325960896354557,-32.08470732764853,9.957519603856873,-12.335433334414411
8360.0,1.6240662120513931,17.057871622127667,-1.1553676144358773,32.564858974969745,-21.725442715554717,24.267419694978805
8380.0,-1.5341814384550894,6.078354415405446,4.187152366660279,-36.71774673185651,20.65700299101875,13.558953679852843
8400.0,2.4311113895631595,11.792305770186076,-3.5814783459910275,31.428320877225154,-13.118849607886707,-25.531912032439923
8420.0,-3.648471593468483,5.342796276563652,-1.8597352586263125,-25.28216595469296,-3.9547525852245946,-17.909564021173438
8440.0,3.9804203675956997,13.15655748423086,4.667555313581492,13.723890960656389,18.780380554414585,17.20307666220664
8460.0,-2.6675265350359405,11.590280470738987,-1.982437407012204,-0.6499818972394096,-26.50618496140857,21.53385078544859
8480.0,0.1314241034827115,6.28293984739334,0.11542681401407928,-12.101288338420021,13.684481022083752,-17.860971998446903
8500.0,3.4308715231361733,11.293916250351776,-0.8999473459509953,25.563073178983043,7.603024659496141,-25.827897995498457
8520.0,-6.296456479864761,6.689666540245445,-1.5039419497603463,-30.36797710080594,-18.258123967098868,15.371416619230455
8540.0,7.444569243902472,16.939908168067564,5.495181435620614,34.838735319518136,24.66836275499511,26.81086098591777
8560.0,-6.06000326752091,4.246201501548014,-3.1629274881789056,-33.4238770756919,-15.736496642010891,-10.808209213957568
8580.0,3.119575581677723,11.035643115390762,-2.2219232704805845,27.713213904543235,-3.2755476418141614,-27.046249470819266
8600.0,-0.026648740311244534,8.215628789364835,3.193383646879776,-16.17558557322243,16.201353384850083,6.9581585878041725
8620.0,-2.2542753573225127,12.80435338531102,-1.5627784493472472,4.345544039384931,-24.51105075500248,30.656158771239056
8640.0,3.482704276194112,10.423595390395256,2.1499265445515494,6.96063571679959,16.17148648553618,-3.9606657968552827
8660.0,-2.599470823678469,4.983140581128807,-2.1794545876165246,-18.292466804158693,-1.0986177946656164,-36.19037647583268
8680.0,2.119716556747589,14.207501291620307,-2.543898143917853,29.090786648918698,-16.696986876747022,3.3283255320979457
8700.0,-1.3972015794657717,7.128492450317556,5.512755762518901,-35.639292938055235,24.11169359884595,30.968870371895076
8720.0,2.108776677825747,15.080894503717108,-2.4947059079303133,37.731015119778405,-20.93938311092726,4.06318627544958
8740.0,-3.3151873594993373,3.1343127258686407,-1.8506263624001276,-28.395455982824508,-0.2894731011457643,-26.212363527956683
8760.0,4.6912612617210465,12.199846020466323,1.8993075528746988,20.170459866382213,16.8873710702327,-10.06157720091733
8780.0,-4.105997181930217,10.64409344914882,-1.5436144916151702,-10.61174687550168,-23.713951777644308,29.194071782842485
8800.0,2.281389709927384,10.452115598372814,3.504939178597904,-2.3018113502874837,21.45997199786443,13.37105727188838
8820.0,1.4525720558845074,9.611551512977648,-2.2675632316818555,15.30132389490137,-4.442002613386072,-26.899645112209086
8840.0,-5.028684710291464,4.551523132338729,-3.144756568152346,-22.424092472422966,-10.5869830236786,-16.387838884399873
8860.0,7.16638133973872,16.718372156393222,5.03226741805306,31.480949241677244,24.41805455572667,22.934528673344868
8880.0,-7.2632590333671345,6.58754750241334,-1.373501248507607,-36.27486043648838,-22.524996015170576,20.989226503375573
8900.0,4.780309057157745,12.712050359125968,-0.3756850636367982,33.78445534871973,7.904457825710332,-19.81145173953874
8920.0,-1.8373566276954152,4.227325332221426,0.12137370264010368,-26.85080740974882,9.549689833972076,-23.889651385895334
8940.0,-0.9407812037527862,13.276423706590121,-2.036690973560084,16.173349165494155,-20.816114375206165,16.04658662092199
8960.0,2.20358677761572,11.500945768041309,4.792860910417549,-2.0683708340287934,25.820362174539124,26.745884269186018
8980.0,-2.5989147082751143,7.409968267226891,-2.2654200051275097,-7.421241240829069,-13.275818865739314,-16.787054658470495
9000.0,1.3223245912355732,10.517497121148011,-2.8929055587099075,21.168202853415913,-8.535744015833544,-27.91839891108259
9020.0,-1.1764642429481735,6.4655384668286215,3.526071954264248,-29.058831571970536,21.89069871615023,7.979412266493442
9040.0,1.8018262874805697,17.222969166241523,-1.5644531884787576,36.49853186569318,-24.167663876552172,33.474489297597756
9060.0,-3.3509315071279238,4.488744339981322,0.9180429690580021,-30.77182525928823,11.647768239169471,-4.0288246838053885
9080.0,4.714665531503797,11.587740631294567,-1.0496196000860378,31.618469150103525,1.467046618969901,-27.442521115067564
9100.0,-5.424277941411541,7.022460026672091,-3.1274216670450015,-24.706206048325072,-21.22607518635744,3.739583671156064
9120.0,3.825900615259267,13.510843697918332,5.530794686046682,9.337879629932585,22.35680863332693,32.156994169932965
9140.0,-1.1679481547005728,10.695405908621364,-1.666837739801767,7.331054525406028,-12.390239577496294,-0.9459584496435731
9160.0,-2.3174490090115647,4.584394738039388,-3.143863213871586,-18.348271751601906,-5.744820904235448,-28.275418480297567
9180.0,6.092508797244403,12.828640838664391,2.4808965022206393,23.81822679045391,18.593333056700924,-8.655450631533117
9200.0,-7.3376377614339185,7.667080890510054,-1.4033323039111183,-34.30024808549999,-26.439295496433008,29.565621705511184
9220.0,6.40622453954068,15.646458621312409,2.772709245152546,30.982543517389708,16.379449492773368,14.354486694906928
9240.0,-3.930580028627125,2.9444238907317395,-1.6231306486490324,-37.01434828211085,4.795310640642536,-26.698025677406754
9260.0,0.830542552205658,11.994074381801008,-3.6364408337981704,24.629095057246737,-18.462346535124308,-14.035270331324927
9280.0,0.9178088839999987,10.155927473169355,5.306061709349541,-13.031710518939043,27.69347030656592,26.495278644243324
9300.0,-2.0185065883310056,11.601696549652655,-1.2934271283212322,1.2616270098622189,-17.126487727803823,18.01909687277199
9320.0,1.3429718783410636,9.53203573980616,-1.3827595548735379,9.133028436753992,0.7027400150722636,-18.30919193190732
9340.0,-0.3944071687647358,4.80293081906972,0.9315187135182409,-22.46631386866682,19.05106757568828,-22.048639961934683
9360.0,0.9073202907378893,15.498927081915022,-2.291829653568298,33.144562192412046,-25.756287847411365,19.57641666720936
9380.0,-1.8220010826854203,6.829886671955335,4.085353607131688,-34.33182121967856,17.249713449993624,22.35151920919146
9400.0,4.234225313736534,13.41186469770682,-1.515697876447348,37.708035886358104,-3.290077016229202,-13.830452919751737
9420.0,-5.704868219160483,3.53386773243022,-3.933977333918262,-26.843887469381045,-18.198301035253696,-25.761172258448486
9440.0,5.235959463857262,13.622456535055557,4.182343163241762,16.198256416067522,24.98541342194653,11.65481041901198
9460.0,-3.6318425741118068,11.05306428303499,-0.8827474996224334,-8.44486209318335,-18.30829571112798,26.6788156605682
9480.0,-0.06451441941968074,8.2704374997174,0.10334193707291336,-3.219101149231596,2.704517854558089,-6.7107947059320505
9500.0,4.121716060424522,9.737054338844906,0.1859852881185754,16.29590518389246,15.11816126428942,-27.68377531327035
9520.0,-6.573382550192268,6.214505797721259,-3.2658275661573324,-24.98706625660833,-22.73588734429015,-0.47045367774506675
9540.0,6.76735109933729,17.070720626399716,4.707539281676786,34.54460474347071,23.94153487674011,26.245356323398134
9560.0,-5.156845164931451,4.620131329593203,-0.8912855909614421,-33.76956505286373,-7.564930303226354,1.184786085720738
9580.0,2.595107964269225,12.075366618797041,-3.940011250647597,29.550908683889173,-13.936335501782231,-30.079040923426508
9600.0,-0.4865673789335262,5.878899212744061,2.9218888144123727,-23.88900380397777,24.625192759879646,-2.511148386548167
9620.0,-1.0983300450155216,13.96996101926422,-1.0106377410452325,12.346895605062018,-20.586180501338596,29.151221304609436
9640.0,0.8951532398908969,10.646952683633645,2.056219487684376,-0.4689523131038823,6.403995912001248,11.596115611921089
9660.0,-0.3971278867815821,5.86269144092053,-0.5479787757535556,-9.449113799641175,13.394113459633761,-29.178374484773354
9680.0,0.3439149424531527,11.941113640866412,-4.1292289623900365,24.987378987995534,-24.896513173055,-11.353569076780907
9700.0,-1.294398624897719,7.4332471905595385,4.622751299375354,-30.603118298118325,18.84228738588326,25.133540586340246
9720.0,3.02437176251784,16.45050333960662,0.035261731143157615,33.50761018448427,-10.057236510390078,17.344128760088097
9740.0,-5.223558984657882,3.296418191364687,-2.5275184584893675,-34.38799230845219,-5.7471503637197126,-24.566378432442253
9760.0,5.81563656759732,12.078650609939656,1.754892312571718,27.192796516265787,18.68075531327905,-20.985949228783575
9780.0,-5.355205915274274,8.971249875494369,-2.2704878780485407,-17.040844376308733,-22.482141194159524,22.580965448784948
9800.0,2.2949692279525684,13.118479470716776,3.5569898342799817,7.406831204877717,14.899552010390265,27.23138223495419
9820.0,1.2150724268272142,9.304435211138324,-0.6981134448411043,4.778690440523074,2.6277479296234114,-18.34233000701228
9840.0,-4.262910391327908,5.491167085392816,-4.744956197485801,-15.993704432202696,-19.860206491094566,-24.718141166848135
9860.0,6.579770001817567,14.96324141185837,4.190700737564503,29.796742056567872,28.167833209631343,13.241708096669642
9880.0,-6.5530176541183796,7.266482815206994,-0.1822576694545138,-29.649722578780704,-13.793545634308986,27.393205810337115
9900.0,4.1975663178182065,13.59966498989635,-0.8660482252370586,32.86641197314555,2.128153172981153,-8.078898113764765
9920.0,-1.8569631512302105,2.897804948359215,0.8222720495930242,-31.518014249413405,19.336552935002754,-25.849792159740673
9940.0,0.20307357543392912,13.608966317551328,-3.121823951145259,24.29739985591739,-25.807845478726716,4.482680886101005
9960.0,0.4637945195888288,10.471734299142197,4.356117224533071,-13.76987001536748,16.8403531128576,30.419262082978264
9980.0,-0.1722244491751856,10.028037024486741,0.01039659477394283,-2.286367240624417,3.211207073836709,-1.5581353506831697
