timestamp,ax,ay,az,gx,gy,gz
0.0,0.23854833718139057,9.668701759189624,-0.26152544630129715,0.06385532197907201,-2.378633778030102,-2.846663437746533
20.0,-0.5773058214524074,9.360379575832487,-4.561037946227212,13.155505425100081,-17.973780786499056,-32.774735977256285
40.0,-0.15360197499935685,6.032003389960118,3.4652919525772674,-21.676196558261374,26.832151829165635,-4.965771951519127
60.0,2.1928132444066466,16.598035581782444,-0.5432547552350002,28.194937131242828,-17.721341544957696,29.291765822157323
80.0,-4.268226726500562,5.362136719285344,1.0114620332822382,-32.7283673517203,1.9735913748414493,7.18311492529193
100.0,6.348241043497133,12.171308414413815,0.3724766794069667,34.12808710082113,16.878369156879376,-24.14043023372374
120.0,-6.329130857908814,4.671877076250564,-4.046790560794307,-24.80086462445868,-24.907146035649518,-10.749081452003068
140.0,4.805326536606513,14.605003490858564,4.614859781718554,18.895887169053555,22.84489922802898,25.30306917774881
160.0,-1.2685465576415087,10.465436107883097,0.5765595099685898,-4.306407507771068,-1.1947872500701826,15.79405870170352
180.0,-2.5506353700154913,6.6049688762161205,-3.2766187038161667,-7.32354173849203,-8.969927447969063,-26.00073880889571
200.0,5.28848113609453,10.67661003806227,2.2887313394857247,18.327452188810188,23.41338162005515,-20.00542900226084
220.0,-6.294977742762305,7.282052733106783,-1.6022846233172352,-29.83982033412927,-21.36709919241491,18.12259453074818
240.0,5.199349085269235,16.612325714362925,2.390402171518146,36.15205255626127,6.777856405639277,22.768162704411164
260.0,-3.1433828335623315,3.4635246748520254,0.49688798376188004,-34.05032424912839,11.235600674616093,-14.016978301566029
280.0,1.337956256352359,11.974089381845598,-5.050448966378252,31.71496901268236,-22.334286106346585,-29.19301623465128
300.0,-0.48301682258933115,7.915760585032502,4.353320610096326,-20.509946762093282,22.749344548529617,11.744308681703064
320.0,0.6687062683249984,13.790343058579039,0.5474823651352027,13.871006039442573,-7.039470530510494,26.469801298522924
340.0,-0.842847374942454,9.043510393410171,-2.0170348148321433,2.709482635815389,-11.056589481440927,-9.499434624765978
360.0,0.7711842215361542,5.441007230520036,1.3506876129155716,-17.01816001507035,25.707563303690364,-32.90280979029756
380.0,0.4852433918662658,14.09825179700628,-2.576351418528168,23.772088653323532,-23.762083248305565,6.209375324416573
400.0,-2.7480089295084142,7.474381396469314,3.6990979836184743,-31.008750590007597,13.218273341811875,27.527495112729596
420.0,5.535902168445672,14.421727181960575,0.7023378938789565,36.3843686357192,8.606057285437569,0.1961592508371619
440.0,-6.502139295803696,2.2920699213863487,-5.243090799598092,-34.049568129351684,-21.058322746994822,-29.526306699529435
460.0,6.822179377453672,13.424564347763742,3.354254765805218,28.664661245891413,28.830637792281898,-3.6854574520165286
480.0,-3.8229604631571013,9.839856307073381,0.11464599864166546,-13.814551330439489,-11.564772372539231,28.691506337813255
500.0,-0.555659388125265,11.660418786291922,-0.2824147714496874,4.533080749989689,-4.633290959427664,8.512279318359912
520.0,3.750124859562862,8.704317912411094,1.0533676432486365,6.996027631686667,21.926484935329782,-27.386387172663802
540.0,-5.529306270990087,5.924004165603606,-4.31045882647894,-21.97160613160629,-25.20968189028363,-10.827421997192573
560.0,5.723693877685737,16.285483203981517,4.0058567513654975,25.764472015391572,13.088273818737328,26.095131575620595
580.0,-4.257567096532059,5.920643798855864,1.1735439584206613,-34.97530187101385,4.799892794355098,11.762466267699866
600.0,2.4750263813782407,12.40754754288209,-4.568178922121488,32.68508044891076,-21.03444640994789,-29.727577503904413
620.0,-1.2559918984178589,3.940425981749327,2.0043073096589756,-26.151223773227606,25.542577577896314,-23.56718835014454
640.0,0.4502960244854663,14.809605601722259,-1.1470231713599892,22.520415424014796,-18.18813875003956,23.93070940745389
660.0,-1.653244614559849,9.867307887973148,1.1720742064039915,-10.369359886188084,0.7434023594407837,21.824353155314643
680.0,1.745672348358487,8.546293907934674,1.250918732696527,-3.2628206974007328,15.72528229572601,-17.332003432009152
700.0,-1.3024520360761056,9.753643364919233,-5.015291810597822,20.225120211668692,-26.40360612317893,-28.361735327316527
720.0,-0.9889368132771739,7.653335910978431,3.488620766733152,-24.98837994459604,18.27396152727708,13.13328579004243
740.0,3.828724274446058,16.72693458217101,1.5151650710286821,34.27811556828706,-4.906091368338759,25.254403647790312
760.0,-6.3984550319370985,3.91535283744941,-2.8697621867104672,-36.03998524477795,-16.497769443771492,-13.837506521723348
780.0,6.7722726175558146,11.776706575198176,1.76957870285696,30.855497003556266,25.295760900056578,-29.271162192814298
800.0,-5.972512220278044,6.828142012787013,-2.460077110046479,-22.205780796175823,-18.359901373034063,5.103441018953305
820.0,2.606303366804546,14.582152261200186,2.586809178043792,14.054704123321155,3.4028925428895986,27.28221584315477
840.0,1.0934658553713095,8.87387808237689,1.6830476973278763,-1.2317774210426982,15.990657938297549,-5.325009944393768
860.0,-4.535135981061567,5.813129006016643,-6.030840731195308,-7.974395210137074,-25.78667480150894,-32.239716963151096
880.0,5.136050964583748,12.482060709901612,3.0563482742139167,18.726194839426324,20.041764410775794,-0.6218406490796016
900.0,-4.906058063678885,8.520796844045382,0.8687756817332075,-29.19160146173352,-7.194783479461805,30.49034566284592
920.0,2.755840287985483,15.179673645824607,-1.140697715862347,31.068776544956922,-12.16726442035607,7.652653287262674
940.0,-1.5550421423706848,2.2321757047792508,1.5327982850790607,-38.7587554728002,21.160618186495366,-26.97502231833542
960.0,1.0558188827705615,12.886297954227036,-3.695901834457251,29.240051121640178,-22.369749144097078,-9.308225384893344
980.0,-1.4014699160460427,9.162984383851452,3.07923282301916,-18.832538634863674,12.531830177521284,25.64182809809918
1000.0,2.4097733774346852,12.19015390906196,2.0222464983519695,7.321463251209342,5.35147605605863,14.751172605581148
1020.0,-2.360565767759223,8.218411269100834,-5.24352533908403,1.5369872419692323,-25.784918267632904,-24.452119565701825
1040.0,0.8836779567567185,6.315478833123355,1.6373620928579384,-13.92573858601221,24.653548283708712,-17.24836901038983
1060.0,1.8505809129181283,15.396647651171781,0.030551031610646914,26.08365802996876,-9.511826040543085,22.371858367574898
1080.0,-5.155091765280906,7.103626829006221,0.22305399441740406,-32.48737477901729,-7.085423984218493,23.109155226465347
1100.0,7.197879630067244,13.098453031064127,1.7763079574495575,33.09804361413369,18.72612585157538,-22.248822963016423
1120.0,-6.599293288793331,3.576362652324529,-4.973776262792315,-31.68315482745789,-26.621379291530538,-20.992997291609477
1140.0,4.966525755635066,14.917949037892583,2.8214000932473073,27.351674014040853,13.512832435628134,16.235185570141553
1160.0,-1.4366570994497725,9.611006922537294,2.550230160394146,-17.623885145067913,4.164774628551504,26.82960783151166
1180.0,-2.213643348766099,9.383711574154136,-3.8577642302343373,2.037610255729575,-20.958355868046354,-15.796608105224273
1200.0,4.075615699263473,8.96173103943966,1.4179450559768716,8.710449290792237,24.221543143494642,-28.17111169616342
1220.0,-4.829868441091573,7.738843839060676,-1.4653617670125962,-23.48144086511937,-15.933717028304054,7.39976293529039
1240.0,3.419008833233861,16.425410756819858,1.6810576755268265,29.599993394606436,-5.133288825942208,27.666854534960777
1260.0,-1.9148465159633767,4.559386967312103,2.678508920003819,-32.85771336711567,20.72033600924992,-1.8016641971682317
1280.0,1.4254045751131328,12.453362097781284,-5.3454345531248055,34.79387063919164,-22.22112629340677,-29.789444635505507
1300.0,-2.0415870446337125,5.870293406238576,2.2000991702805606,-28.734071205081865,16.034836247227737,-0.5508469222968582
1320.0,2.3822137445184555,14.983085157440696,1.702427266979302,15.215536214383597,-3.537095316978642,30.19014416828986
1340.0,-3.105605947233129,9.230261372683842,-2.2555651098326424,-6.636865400418119,-17.836982673431685,3.1601360602274253
1360.0,2.241788796058026,6.510426922855165,1.7544973507884567,-4.540625946594082,24.216879808671248,-28.375998596183432
1380.0,-0.12695759708926835,11.732985378298121,-3.2225329913523866,17.007959497667542,-16.20436593345235,-5.777832310851385
1400.0,-3.1037220748200967,8.367409699001218,1.9481765119470245,-22.379195995523133,4.590600643350578,30.00716868164376
1420.0,5.9638300787190515,15.35687802330283,2.6456688996142694,36.2599389818227,12.795267542287375,12.870243811042526
1440.0,-7.488745744163265,2.617974046249885,-5.724143966225827,-37.307562161435605,-24.18751006327678,-29.012961356967654
1460.0,6.568233068897115,13.145304865957534,1.493378969731875,33.83655562674964,24.222648214361687,-18.098166203010564
1480.0,-3.4149066394535867,7.973522982715007,1.1433212452843826,-23.24150928059591,-4.592934905304385,27.018084104800582
1500.0,0.32088522163116356,13.452290146421328,-0.4519816232347312,12.320612451508902,-14.901858497794558,23.225911281762986
1520.0,3.045135110036985,7.876052652992449,1.796454073768057,0.3410496461240482,22.765585955714712,-21.820582461531334
1540.0,-4.132565281986363,6.50239329569802,-4.877390778164399,-10.050373275857488,-22.806338925318627,-22.027445398456564
1560.0,3.687823960758909,14.600103992751723,2.4156898074571957,25.263200534562152,5.450770833163274,14.823598031131947
1580.0,-2.0582455986195214,7.915005516644008,3.394222668023401,-31.439201535027923,11.255172677372052,23.1730702101009
1600.0,1.3619557647943596,13.70679647827816,-4.05275284201067,31.712094749414398,-23.54825155242253,-15.842178700926764
1620.0,-1.6799049558514578,2.5437722290722866,1.6678160067575156,-33.0462522424715,24.016147557694808,-27.01660261449323
1640.0,2.369128985070123,14.647267539970285,-0.4114958453994968,29.707010972336988,-4.718742919204921,9.666723376554982
1660.0,-3.5158839305436165,9.40686785809288,0.5046170568371547,-18.786372603837158,-5.648818601345829,32.18635761250453
1680.0,3.4036103845722607,10.19219755237827,2.8274106495024243,5.931221083532151,19.44201497160667,-5.275580780265668
1700.0,-2.324242237179887,7.98216890351726,-5.27073136188509,4.950018625402761,-23.72028779601732,-26.625020473324795
1720.0,-0.9954674048475066,6.813066497356061,1.5608657197661304,-16.84526098930217,12.407611435013063,3.974762034370841
1740.0,4.454799509069197,16.4949257407446,2.672502558915642,29.55416615558917,8.018227489143426,32.01144742688633
1760.0,-7.270308183167978,5.278580234452428,-2.4745429682386235,-30.851470690939223,-23.807038409448257,4.366373087982327
1780.0,7.181176307601157,11.97940426222121,1.954050559779567,34.02680710593433,24.202020071561872,-30.064125740878485
1800.0,-5.491186085942645,4.595864785676232,-2.593427437399404,-30.84210688188185,-13.974586396276454,-7.170063832176496
1820.0,2.1431975551074025,15.47765450897172,1.1083444593263507,22.809071174215873,-3.547663389226731,27.17859099463835
1840.0,0.6263449845945398,8.603786341489293,3.703749004928114,-12.492458883008883,22.059099257019593,11.460341824044562
1860.0,-3.031858384438197,8.014818646342242,-5.273205516705137,-2.002217806408762,-24.55796000767544,-26.174006322048267
1880.0,3.236041294265666,10.257697335289334,1.132479990673687,13.809833233922015,15.996017837566221,-10.947798373826249
1900.0,-2.062775946264583,8.5761426883576,1.9217963604888462,-26.367367924376694,6.918825386709795,23.828666328409184
1920.0,1.482359613765588,15.61608552560835,-1.6209108685882003,33.53682177284529,-20.959420892476075,19.672391365389696
1940.0,-1.8544884074100085,2.810750937384618,1.6639708259371506,-34.313756709609926,27.192434755459615,-23.614933600940603
1960.0,2.2856586293327323,12.593472348389373,-3.448059645634376,32.83241272434621,-19.15809210591207,-25.612405012900048
1980.0,-3.7232131942122986,7.938882983078772,1.400951746543625,-29.14191023397496,-3.517209006667444,17.589546948445033
2000.0,4.4542076299279305,14.33005455260733,4.4116961130001675,17.128483991292235,18.42206615218841,25.489288713805927
2020.0,-3.6376283083580114,7.332320807553301,-4.721246338776227,-9.175267378399777,-24.755520811744848,-20.53807552910054
2040.0,1.130691394939911,6.581622229839819,0.7732360669062822,-6.962116551730175,17.500608119629472,-23.572738269085498
2060.0,2.0011161203658445,13.344780019180497,0.5844528501082863,18.920698165388995,-1.9577925759724177,15.680976291656098
2080.0,-5.418353930494767,8.170484612636521,-0.32397950954384713,-24.00595918744602,-12.7359457401746,25.987482743876413
2100.0,7.378980773947612,14.219341974017098,2.779421881443887,32.28413877527801,25.350153751336034,-8.733379836332793
2120.0,-7.016958432330629,2.2152017156660646,-4.89877511489577,-33.161125101904645,-18.38508388991712,-25.15172066657804
2140.0,4.843075020200462,14.634602578373235,0.7623591360635331,30.556771146942,4.92728104944951,1.3402511565520487
2160.0,-1.6499339574642844,8.955483072551306,3.7646580388207864,-22.47914824900175,12.722470869882953,29.78858076357622
2180.0,-0.9557116534502397,11.316327684569938,-3.258704291736807,13.515527510677975,-22.675167147743707,-1.5739780608972886
2200.0,2.672005169665141,7.434907067146361,0.7683897761373546,0.7998807902451822,22.692883208056166,-27.546828214672065
2220.0,-2.7470153760134255,7.640423176797596,-1.2859634884293525,-11.577904539533812,-4.851497225343348,-7.922796040738186
2240.0,1.5058260318152392,15.517877106870852,0.34016518653284744,24.358755827541987,-11.721713270384596,26.131806968799275
2260.0,-1.333765317954811,6.1520230966258405,3.700284665663427,-31.733779689730294,23.037141531777017,10.273046587413916
2280.0,2.01457928154497,12.432248766250598,-5.11334264361173,34.76351187928724,-19.549627847128434,-27.73865214371476
2300.0,-3.129177353556612,3.7797948602424865,0.09447474354214708,-31.504434236398595,11.467156428608112,-17.320390362408567
2320.0,4.560806913135885,15.882188712060437,3.137828687407185,30.7598051834969,8.709947307611962,25.155343903250927
2340.0,-4.600556336406944,8.794494193953755,-2.1372976979203635,-17.371138765263876,-25.42580308983798,17.864168687095724
2360.0,3.3610701447822358,8.837039058578803,2.359780836109986,6.1200055479667,21.332486086986613,-18.496644660417854
2380.0,-0.23921014382683775,8.88166725674271,-3.2194570378610585,9.234686768113068,-10.338816633711874,-20.94525403914308
2400.0,-3.5093185497279427,8.550682764987863,-0.02305111948977956,-21.835088159930123,-11.018670188308793,20.62814039038218
2420.0,6.340149886161203,16.030154707246147,4.345943413597361,30.14779708541962,23.869796170361987,22.947646137296502
2440.0,-7.362972189670485,3.6769178859797695,-4.4960796237098,-36.19693034874159,-23.849034435220812,-12.874090211994039
2460.0,5.861992472088659,12.629099893553596,0.41743184356390395,33.11242317570087,15.797038297230756,-24.037485762637708
2480.0,-3.1218986655238155,6.4338837977600365,1.6770330035714371,-32.21030503479375,8.378658985611036,14.384986276989078
2500.0,0.5064978471901673,15.286954498784002,-0.9201118686277276,19.507610179879247,-18.503656518806938,24.03793102407436
2520.0,1.179251846320969,7.453801678441866,3.275996718389065,-11.289782956648057,26.685974606606408,-8.969904704174645
2540.0,-2.2343163822054986,7.211060228445894,-3.989401640651057,-1.217054518374308,-13.701759172859902,-31.552428007330622
2560.0,1.2987088873130306,12.575870573939596,-0.03686999081313824,16.787823206890344,-4.2762979505363,2.994981510891699
2580.0,-1.176922489154976,8.71968546122286,4.812098230042474,-23.75265374950847,21.793942954204315,30.9078715425718
2600.0,0.9692683415899772,14.39620436556695,-3.7180626446052507,34.17665741026383,-25.95400331086278,2.186318651723422
2620.0,-2.4284864801224706,2.325942916633774,0.52725252941708,-33.38578948832192,16.322221038141052,-30.762864071551633
2640.0,4.647909702486453,14.509978449468287,-0.16558625088029938,33.85263392329943,1.180373985419473,-2.272883974833105
2660.0,-5.813378899509468,8.52855561459049,-0.3123448311372071,-27.329764674211052,-19.74309918647186,29.200009423357344
2680.0,5.119948463255719,13.048450053737168,4.1518553048358084,16.30972147254177,29.158024128036114,10.038668385486297
2700.0,-2.543124639484656,6.746067962054628,-4.360936588281499,-6.316893332772415,-16.07567437834606,-31.20889921001222
2720.0,-0.7829566625882023,7.449246498636495,-0.580408972173974,-8.609183624719968,1.8287150604653637,-12.202320804869602
2740.0,4.248149075844002,15.03851802956384,4.165924662674917,20.939977134349302,16.660461067915406,27.340222156489922
2760.0,-6.734629915583556,7.105116508601228,-2.526493887545432,-28.983565397012363,-27.0318024530825,16.149973607437065
2780.0,6.939703255076415,12.770975384033282,1.0686509183702613,35.49528485072332,18.733985167498076,-23.482372674524736
2800.0,-4.816976523892936,3.24591645120844,-1.971758757145062,-34.7421645163238,-7.210245569789212,-19.10700743594085
2820.0,2.177840595236544,15.553132143538626,-0.23085218653317924,27.107264670154528,-15.698013366891852,22.932315231500517
2840.0,-0.07143767522731373,8.807233618327801,5.051298588955266,-20.22151964205001,23.375961117178605,19.140025987889526
2860.0,-1.399114689220705,9.926249757386744,-4.427147689774613,6.644628324001533,-21.901635636840712,-19.32700340077689
2880.0,1.18929281208944,8.118071061135328,-0.8719877490690896,0.9334705443645213,8.158346291748074,-26.556108713306212
2900.0,-0.48357303122147866,8.820925176548924,2.841836380267104,-17.86699725147655,8.49902236158173,12.83419178268536
2920.0,0.40634829666065714,15.63862380948013,-1.1378610429425675,28.215806505754564,-23.53028446532462,27.090880473096448
2940.0,-1.3915009098290998,4.494008211189099,2.299329665153342,-34.547402711446225,23.79788434082973,-6.181296224408609
2960.0,3.45531303489512,12.523769072218695,-2.507347740987095,39.52504147376091,-11.04064102568317,-26.934584528570696
2980.0,-5.103297300819609,5.573734313408626,-1.0095973335967887,-32.939256676703096,-9.338414021803493,9.218506403127103
3000.0,5.7296252883924215,15.884612185267937,5.3857483719346035,22.008129783017594,24.690832430220194,29.979069869995445
3020.0,-4.812707687339937,7.507856035268317,-3.3559261270003566,-15.988236064658569,-23.194806688845134,-7.194505788701881
3040.0,1.4508424972429892,7.815574088283113,-0.661861101339708,0.43421054488214494,7.843385516574617,-30.843252090948482
3060.0,2.13939477895418,11.483174570534871,1.0322917541225747,11.540318688303095,6.511769744185508,-4.499372797110036
3080.0,-5.255813030507691,9.152622325751478,-1.1000610393207528,-20.554220725506262,-20.788062663147116,28.48928542348638
3100.0,6.787473003640208,15.198670496615017,3.7443603809621226,31.133787112471577,25.46247358514423,5.665912894888538
3120.0,-6.182178067375717,2.232378934730079,-3.656292509271897,-40.10344058144974,-13.684000559937681,-23.874898938261047
3140.0,3.576571270939547,13.952483633725908,-1.8563952292572172,33.872111500477665,-4.93616299733094,-8.696095565662624
3160.0,-1.2006604372991438,8.121077354326834,4.591617685498109,-32.1407431435222,18.442413073156356,26.168791877757013
3180.0,0.38766538048056276,13.8706087275675,-2.617565418945316,21.06374283259912,-22.15343323036485,14.140756481098705
3200.0,0.49842337964782724,6.706556786743866,0.28546071806711715,-7.749017160562968,14.80282397473315,-27.19567427626191
3220.0,-0.06658107290069419,7.620537173138257,-0.7081074973794815,-6.189115359632835,4.323203090264011,-17.635217782877582
3240.0,0.029633179896370265,14.04900186425091,-1.5263699574919056,14.926195540098876,-18.690173465767632,21.60251580069599
3260.0,-0.4608446246325233,7.832011696344793,4.893529244666285,-25.47689568057374,27.193001210097027,21.84877666028676
3280.0,2.4242869058225494,12.987052897418994,-3.3782480602212703,30.182723487199027,-18.835781383344205,-20.545009167181338
3300.0,-4.835604483478637,2.7079154109997923,-1.6082543824513482,-36.10606039206128,-0.35084579077983696,-25.57236047459486
3320.0,6.276017115649363,15.7720830912805,3.5653694852138873,30.977306869679424,23.077500412882536,16.026203783770775
3340.0,-6.461487373468628,8.494066846380061,-1.7087433385511615,-24.055331082535194,-23.807950679567362,25.2043197544258
3360.0,4.363102105348884,10.894039138470617,1.761594337463775,12.357523948327986,19.750171763272494,-7.6842622897750585
3380.0,-0.2859007248872437,7.0886720375669485,-1.8008728543118404,-5.636270502406038,4.018656317946176,-27.170086775139794
3400.0,-3.3332211451584466,9.035814860156993,-1.6567785866410962,-10.039076295434471,-15.179902358259021,10.691199329239865
3420.0,5.527077585204797,15.516861986651314,5.591357107892871,22.89291176926447,24.42920543181933,26.667100386562968
3440.0,-6.440229101977469,5.138263234225124,-2.9699102061484255,-31.86205383256366,-18.639453673797398,-6.845175386970563
3460.0,5.157929417852187,11.938461465268333,-1.6892054254972475,31.540864966006513,6.890128693351489,-27.252338614796386
3480.0,-2.5348746599073695,5.19739823205771,1.5922147083333966,-36.715079482222244,17.688721793644532,0.0884207789332423
3500.0,0.7090767550475523,16.335538233497584,-1.2663620269702318,30.102726439867258,-23.40458511128211,28.40825236286835
3520.0,-0.3848926561542305,7.895119632570195,3.545817147665641,-17.95519380061331,20.225627885092297,4.556540799248382
3540.0,0.15906162052091796,8.460758992401471,-3.137158116227775,7.295087995547833,-6.838112603138969,-32.86507624731398
3560.0,-0.850757141991486,9.540750162384198,-2.291825401389456,6.123686591757655,-8.612097217963257,-8.271786776802896
3580.0,0.9046352675324035,9.51053546168923,5.149927308740379,-18.008260283448504,27.024521251814434,27.467568802160685
3600.0,0.3938244081113262,14.706154165322772,-2.190426961967059,27.868485149044947,-25.76758299838786,11.632759663859087
3620.0,-3.111349832254852,2.926202366097447,-0.4719503296221536,-38.65989669355066,8.058658077077348,-26.72594744609468
3640.0,5.598666405918626,13.667983947071459,0.2924470361411755,36.01796365235204,10.777447086733293,-18.532700020417167
3660.0,-6.619577354052911,7.298405031432462,-1.7437427695224372,-38.828919263854516,-24.102033660324743,23.899779418467702
3680.0,5.923412022452609,14.790863440532217,4.671258245995641,23.959173207583827,21.313413253013998,19.445688893974154
3700.0,-3.0692610620842733,5.934450608951342,-3.0833073444571983,-15.286282457354085,-10.243695802671375,-15.794667233318648
3720.0,-0.5906708617377274,7.8985627138526056,-2.292888314875121,0.0911496060048772,-6.786318463609545,-23.319164927429533
3740.0,3.8889712770817444,12.831032875272054,4.440267107221399,14.200513176456576,19.01246749223801,14.754650113486337
3760.0,-5.722952766257007,8.937444450590226,-1.4552772969117453,-22.887953606631438,-23.147117224421613,22.704299486393918
3780.0,5.493565992129523,13.007007924455682,0.5521852393916307,28.81452641566925,12.527331576754507,-18.36137520634084
3800.0,-3.49138331901805,2.3436364078780842,-1.32793895402674,-35.510751427194506,4.7805725181037895,-27.091574341873116
3820.0,1.333877789033747,15.53066594820783,-2.5571569362106366,33.3216852103319,-18.813527010390636,13.085730225022507
3840.0,-0.6270147030040788,8.54330515910087,5.401844406627579,-29.373791843201122,25.64342129883829,28.781738940065512
3860.0,0.4417003391896207,11.924749497948905,-2.256010125346974,19.426065299891075,-13.803801983659982,-5.904847650536297
3880.0,-1.106199622780586,6.188597966376323,-2.2193336637556107,-8.13326080110906,-4.370223437543055,-29.14162930031776
3900.0,1.4807723900645593,8.750525446124612,2.893729966281652,-9.32419733117884,17.23197163759999,1.9224325205197017
3920.0,-0.6641711053470335,15.246734058243362,-1.7189837156607146,18.927180932598276,-26.438849827052245,28.703974882315002
3940.0,-1.5586154068994016,6.50219568503605,2.2995062651232505,-25.090532416479412,18.694223041228156,6.371034567148209
3960.0,4.497181048086897,12.568998309646961,-1.670933733711464,34.82955360972845,1.0960396181263494,-32.33490567214857
3980.0,-6.873782592842235,4.087386507377918,-2.8189237164062253,-34.8913103947626,-15.332876071426488,-11.095455551308023
4000.0,7.22565270929097,16.930346879624512,5.282038871626948,29.1526852924925,28.834698627911447,29.832875616234187
4020.0,-5.388418885750442,7.489871850241234,-1.8121484244475772,-20.524395330101278,-16.50750568023889,12.505481669131202
4040.0,1.8609824946416265,9.5828603749988,-1.4214928856750406,11.675020386800423,0.8351830200969291,-25.6696685412365
4060.0,2.389090794624724,8.048632185472615,1.3679168869560705,2.7784145287409476,16.898414083507475,-18.31359404624945
4080.0,-4.72263661906691,9.906717128870847,-1.8045459993111483,-16.494927807886548,-27.288058217607208,25.22645167971964
4100.0,5.597020449738126,14.713957962840478,4.032925601657443,23.58342149609,18.03609298282282,19.611029559223287
4120.0,-4.3438875787105715,3.56714782966665,-1.69489188175361,-31.24492780943991,-3.6732353384960303,-19.882997663922573
4140.0,2.8090719605705616,12.779853927093562,-3.387787027089248,37.94609379191905,-14.986126961970575,-21.55397891674486
4160.0,-1.2018096132196667,6.470164921624798,4.223607546091457,-32.770427111587935,25.434642052637855,16.938962752442276
4180.0,1.2012623260342035,15.794238892754025,-1.3134743913417521,27.647107581209355,-22.08357240235745,24.752652237547625
4200.0,-1.850729289832971,5.707028554077002,-0.11009105861882618,-16.42603662643719,8.161341072986135,-11.901006378451969
4220.0,2.404812254551785,7.998293179123861,-0.09973099825202848,8.827769048514208,10.462505615157964,-25.04802416279411
4240.0,-2.166253366311826,11.84086975450263,-2.188568851900666,8.630912742582664,-24.77905061028906,8.676183608690682
4260.0,0.42526610359004025,9.520540745480805,4.948641739179586,-21.070156102338444,20.485279930510533,24.740364414762333
4280.0,2.2757552548930313,13.272223628852425,-1.8651497183133119,28.281794644356285,-11.267754329170089,-4.280750376129035
4300.0,-5.650181132071921,2.5736461051203166,-3.741658594307416,-33.768277281456434,-7.589182322336712,-25.90527312894238
4320.0,6.981177146096437,14.89993468102717,3.4601052869096693,37.22713822907415,24.76322645947442,2.2567008710493965
4340.0,-6.780689276721273,7.728980174170962,-1.1308310313683547,-30.917547539377967,-24.41625005490493,26.817104066365218
4360.0,4.203068592111978,12.902062411114246,1.004936571464703,19.862450179793733,9.512575909017077,-0.22721966926492065
4380.0,-0.546763088100983,5.697139113621018,-0.8361653036117739,-9.824837183503423,9.505533052645978,-29.814705581023226
4400.0,-2.6688122445456717,9.203383889027238,-4.04684599349026,-3.91837950281341,-20.532500554970007,-7.534826147497803
4420.0,4.644166142926403,14.173651443647076,5.322158741977674,14.686644767037185,22.768269811932004,25.797094755292022
4440.0,-4.5344529430380724,7.248790407932835,-0.7627861962202684,-22.983717122677994,-14.957815839104821,11.438167597125735
4460.0,3.4772891961840355,11.890430946968257,-2.5000145976081014,30.40741125048353,-7.385675959150451,-29.22234470358489
4480.0,-1.941095548495922,3.896648575578474,2.0972770814270225,-35.175302535385335,21.26456298349196,-12.769024817015467
4500.0,1.388273495365672,16.700105267972106,-1.992197990838071,31.434093000674352,-26.481550059161776,24.15447577905742
4520.0,-1.736799691689316,7.399630500187589,3.269905452147094,-24.653074043405415,14.807469778626421,15.43530619729954
4540.0,2.5361742342639864,10.601800585859621,-0.7256729319577235,14.951518941866532,6.548693849038161,-24.407701203586644
4560.0,-2.7969474664411864,7.3216568457950135,-4.181737506232068,-1.3357047352081404,-21.77039189168853,-19.617587764675672
4580.0,2.102134566686392,10.32893870779513,4.589112831486719,-8.844491089587885,24.091716436483477,18.73759584694379
4600.0,0.8343244485154667,14.631392589581727,-0.25597178061031156,18.649587109114137,-14.451317407189471,26.822873379159105
4620.0,-3.7298018738152647,4.130335681094343,-1.021231247551485,-27.238424002000393,2.1790209674723147,-16.689564461730043
4640.0,6.524926964924768,12.465282809446517,0.7463038211390071,35.04610720896298,15.963523543348176,-26.16241061428993
4660.0,-7.336540323892398,5.881736429505302,-2.692862900622332,-32.33083091713285,-20.543577238345023,11.665578726204783
4680.0,6.023228468601974,16.435953258469883,4.464705536554052,29.7409640052439,17.892162676044546,27.979468957678556
4700.0,-3.050570094491278,5.833761701695865,-0.3769122111342871,-20.052813122466357,2.3806098501801847,-9.91809764101623
4720.0,-0.6194064933487455,8.781071870374333,-4.369683421951186,12.568887651417576,-20.065450517472527,-29.878833606896272
4740.0,3.2711936857698034,10.26863230614151,3.8292966958821286,4.579515605953313,26.44749801986212,3.8856427095815844
4760.0,-4.459133789204371,9.857873762037688,-0.6491465972669748,-14.539621398950212,-20.5727959074892,30.926660867698377
4780.0,3.615595866954061,13.603082596970925,0.7196892865846345,27.746854211985827,6.8520004870404625,1.8139951080870658
4800.0,-2.5983180592214943,2.5279765635636497,0.2538583894966423,-31.684328181599252,16.1568856789919,-27.99824411301817
4820.0,1.7492869479394615,14.547477484279758,-3.8339828446071436,37.27863518520301,-23.977153263170017,-6.628234695233696
4840.0,-1.8988326660047097,7.840977205622486,4.383262461760596,-32.83179768941733,20.95726603108469,28.401702642181604
4860.0,2.9856694477697325,14.377333243664545,-0.11705286966478001,28.37728829990995,-6.882126832618289,7.485067901474179
4880.0,-3.34031973885939,5.364707685757936,-3.8609251005612877,-17.19052375934246,-10.712613165874032,-27.070578068904517
4900.0,3.751794868444768,9.087116044229377,2.211797568276948,3.9817967710146647,23.984907623839142,-14.3213199916263
4920.0,-1.494418292686206,13.357536867860237,-1.023715565450507,9.675821782069736,-18.352213760133537,23.709926388402906
4940.0,-1.5386898129850102,7.911106267363415,1.9521963520528942,-22.730323131091993,9.772043096914626,17.722629095588026
4960.0,5.034707676768654,12.146054520677449,-0.0994604138983753,29.854308796396108,10.627777280507974,-24.063625483084827
4980.0,-7.148228767706709,3.3299838188368294,-4.271021811249848,-33.275631573998204,-21.6817649817927,-22.71665516465557
5000.0,7.179391273296326,16.596926552568128,5.0970975508970815,36.056711067087875,23.322450327553753,22.82519867315172
5020.0,-5.209961262300044,7.581764701087622,0.480853506665397,-28.44703254556071,-12.430001578496157,27.297108694400332
5040.0,1.7844808572544841,11.235623629247582,-2.4356811933980214,22.908716044739986,-4.49856680365029,-17.95353165006715
5060.0,1.9273623169561105,6.769022846006826,1.3419235872599673,-10.72466355105609,22.56766925104714,-24.334981654982858
5080.0,-3.363745059173531,10.246450866769631,-2.244593168892479,-2.3407693262726563,-23.69123103224445,10.086352190772272
5100.0,3.613205160892033,14.379081855566096,3.7461121303482665,14.905890939968995,11.089454489663304,27.17532037503615
5120.0,-3.008984519887135,5.453736349587783,0.4256751080318045,-26.101998921458197,3.637481757951552,-6.5483675801282075
5140.0,1.9703279130528613,12.404844874081801,-4.868398711083063,33.116273197943215,-22.737733489500425,-28.669311510782716
5160.0,-1.5604706161414725,5.234866625863753,3.58972323933372,-33.664088063006716,23.389425924596335,6.824279375436298
5180.0,2.2084177915487007,17.094546943239965,-0.10194773605188039,31.519378182932723,-14.602142106736219,25.148703865674456
5200.0,-3.650790336318352,5.485621129059481,-0.4440791068664686,-27.89524840474501,-0.02196197912323994,-0.04197340221935031
5220.0,3.955373488687479,9.367459602169427,0.6623870810124296,11.120985349985586,21.10425866576359,-27.099116303904236
5240.0,-3.18949110730705,8.992453050722336,-3.7239327631075776,-2.8079783495103214,-21.31235497771819,-0.6188414938192666
5260.0,0.5484726769639758,10.838113309867191,4.092010964479586,-8.252289619306694,14.828723886930806,29.26725274881669
5280.0,3.1713501544969533,13.41640852693968,0.7072516385101569,19.984957997779933,1.4626686679468706,8.521853553321014
5300.0,-6.020544446280584,3.1005431291517542,-4.435840686455795,-30.370599219956453,-17.27387557998441,-25.154229742978828
5320.0,7.544284087082948,13.464554578440593,2.6037760590224726,34.33999045759977,25.271878288204125,-11.206080075994997
5340.0,-6.482041921272685,7.14950584657526,-0.49131156857506486,-34.228291297232204,-18.16093783841001,26.160331713105148
5360.0,3.5326320168681047,14.892313307346226,1.313828611286226,26.99412728282473,3.6627289633006788,15.777831000123335
5380.0,-0.754755381924555,4.789818494811947,0.7907160985179285,-17.23665919021996,18.51109017382266,-26.031573150989807
5400.0,-1.8776600795727074,9.248534205942057,-4.744290585573894,9.208266725909661,-21.877796714623358,-16.833511386615058
5420.0,2.916532566270599,12.101782622046631,4.0966089772718615,5.83333602459054,18.588879566100104,22.460500113149386
5440.0,-2.725933467420405,9.073605577290634,1.0597202923456543,-15.95965164310449,-7.651368480272831,21.034540616408687
5460.0,1.7543351224123578,12.263346028464408,-2.944547685152866,27.836889110051164,-15.263218526788096,-17.300419173503823
5480.0,-1.4927123497447796,3.069874502981302,1.9561183268142974,-31.17546392181804,22.175218682059928,-23.625502103078777
5500.0,2.275342037220641,15.841723379599355,-2.0126382708541053,39.18337265608231,-17.18302625751556,13.18388453046453
5520.0,-3.2883582880781117,7.447429067760249,2.8109712042008406,-33.34139801497482,7.6986506783638236,29.50979050925809
5540.0,4.514775723907167,12.385268624518188,1.4494039380724515,23.977112217202666,11.81784079917778,-14.052385221446503
5560.0,-4.607722988889607,5.6812646433496665,-5.0114893128217854,-14.564246566185547,-24.598987672331113,-28.996339904689904
5580.0,2.6665258182274685,10.712886116453303,3.498078109039952,0.5308948994997883,20.230865425733356,8.931769253310417
5600.0,0.6893649383859896,13.796214610854742,0.763300686073469,8.006664234410355,-9.009267765738178,29.09329679890387
5620.0,-4.433380544617374,6.740567165415925,-1.542513155378071,-18.60917314091089,-9.595432899808339,-1.5846539832447557
5640.0,6.59689377840433,11.353888047830807,1.1017112061851497,34.32254853993583,21.987318513075685,-29.87348245373786
5660.0,-7.094245100008462,4.924640826395738,-3.1502765374311266,-35.84728994497436,-25.397754595331087,-1.1708949176508676
5680.0,5.816392547353609,17.090250178861023,3.1568542966243296,36.93915946778512,6.866661840770618,29.078502739860113
5700.0,-2.419122575348694,5.9285145678231235,1.8852953354149011,-26.517445077877934,8.377443920329286,3.672969332104344
5720.0,-0.04459966895940515,10.139819540094615,-4.9844944423831405,19.859696639744993,-19.84427369624407,-27.926132032567807
5740.0,1.812038593213439,7.91629323270041,2.3585949765958145,-6.513088290941387,24.959866666520945,-11.079665614725172
5760.0,-2.1364414676195023,11.452827729405696,-0.1478366457919411,-4.676373072094818,-9.147930000244369,24.404283201069568
5780.0,1.4176783782482378,13.534805676974553,0.12103963228297923,19.502796293329197,-6.711169855790419,13.867302469883741
5800.0,-1.062325127579447,3.82028313733281,1.3244369462907097,-27.28373731089814,24.213823686025354,-26.82685267456736
5820.0,1.1473441434099452,13.238989315599927,-4.63362527728998,31.020284470473523,-25.862792820685762,-20.879536466795145
5840.0,-3.0102164064240053,6.824613395708453,3.359157374614755,-35.279329612372116,18.12226641110342,23.888311533029174
5860.0,4.329247151648671,15.969010122593245,1.912499257065584,29.37259554770784,4.289146231788722,20.2607497741837
5880.0,-5.359849077285149,5.238456374092507,-4.199481808489282,-22.759960176109175,-18.434491581235342,-17.0821164264354
5900.0,4.374622085544493,9.598471877572333,1.8174407214527517,12.294687804829199,24.410350715707015,-24.391548966578387
5920.0,-2.3304671754211492,10.91941524919684,-1.4778168223190862,1.8003770978796962,-15.696470752318259,18.222225189252196
5940.0,-1.7953468158850117,9.960892957562907,1.959110679052858,-14.38533132556913,-2.148888187181191,27.487944934244886
5960.0,5.31185892952536,12.144620135036265,1.741639848213551,24.988352067425676,21.604743389113903,-13.126832870632564
5980.0,-7.400348458924631,2.889918340086507,-5.482551202498372,-31.238003382541073,-24.774515497849563,-30.31519786070256
6000.0,6.598681734178249,15.711648518215934,3.1665442692440466,32.522769867882616,14.458164159920017,6.1770827350267625
6020.0,-4.553191733695966,7.623490743959118,1.70043133250618,-34.3826939877391,-2.1487493340501103,31.355065405036974
6040.0,1.3489486263456567,13.299048481378499,-2.832446495877922,29.076801627767615,-17.581740847165783,-7.156149533583022
6060.0,0.6459910582577506,4.512635034101081,1.699655587922819,-21.31337643778104,28.963490993776443,-30.112720082059585
6080.0,-1.7119752312180088,10.435664009119456,-3.0769896992935366,5.777096435807739,-22.02408135735435,-1.2095920875907515
6100.0,1.347077795182474,13.30732918318016,2.626043349359631,5.062346152976237,2.742134503376066,26.72831185646316
6120.0,-0.3893839942675342,7.458697752254814,2.3399595874203953,-17.897637196935822,15.764791516074036,1.5017037284868913
6140.0,0.7449960968608187,11.463164584653939,-5.528640203548558,31.17566245787658,-22.40374682714788,-30.269140435120836
6160.0,-1.8805837046946547,4.087253377974875,2.3082007325751666,-34.48553232131419,22.327224924819248,-7.47005888438399
6180.0,3.1649626655293726,17.50738262929341,1.290894500757422,35.31034971717438,-7.2926350741456405,24.223094597226176
6200.0,-5.665832246623468,6.610215023614655,-0.7002182987580552,-30.27095742617155,-9.41721467817903,16.095195619145652
6220.0,5.781740463268725,10.975200236817715,1.678697021972351,22.827639561915625,26.155962523157065,-23.121137887505697
6240.0,-4.128723190748485,6.659300543372928,-4.4269528820383925,-9.98781227973946,-20.02718012216577,-16.4821568651627
6260.0,0.9036407296842808,11.816186042312918,2.5786307615613833,-0.06056060685299591,7.861329466296913,22.33880805178812
6280.0,3.0894028594221328,13.142800841507754,3.1108161636178973,13.327626253209512,11.667529958933846,19.0347697732066
6300.0,-5.934332527747875,4.352033081632301,-4.41782137667208,-24.672823554076476,-21.56305127960659,-20.02663911152332
6320.0,6.916968330086143,12.966789903317835,1.8145480373436467,36.39118763841916,22.894579032000166,-20.633131849849626
6340.0,-5.881143864121283,6.337055643616144,-0.4970154365856705,-33.08765460718845,-12.564665911057881,19.87189203212605
6360.0,3.509347576537797,16.63992750915784,0.3856869210450555,35.807775786058514,-7.453036634900895,26.75086417776164
6380.0,-0.5539957877554957,5.108693054072235,2.50091694796036,-26.29160917210674,19.798511083310494,-15.85137920500488
6400.0,-0.8188094255254894,9.8105616582961,-5.399554830702764,19.440145422753357,-25.778958839861577,-30.570752096577237
6420.0,0.6773467823642434,9.814980461547947,2.6128230513303725,-4.153485404473446,12.377091076447515,10.021219030440081
6440.0,-0.09738381992375192,11.057688914896364,2.6477041562919963,-8.597394117945557,8.121319399000495,28.356583948614784
6460.0,-0.12936247841163895,12.013401805875718,-3.6168670421088005,17.873534238827027,-22.68184186102988,-3.072998433085056
6480.0,-0.9001307337933905,3.175719034566459,1.397747508846031,-27.780611350576542,24.047313014007496,-33.32020978874196
6500.0,2.8503791561772904,14.864731491862178,-2.0941633559115513,34.65693101444182,-13.72742691032678,-0.0044008449433124985
6520.0,-4.970965457721564,7.237799451143918,1.5488026527102194,-33.615502505299986,-3.749983083298282,32.064462976982135
6540.0,6.300865116050995,14.137134593910424,2.8522592748438456,28.51106585654079,18.515943450466548,5.001180948012448
6560.0,-5.787092546262996,4.3881500928963,-5.515202893237595,-21.61647563208983,-26.333066631813995,-26.118960980925568
6580.0,3.2713148411717863,10.90094417221593,1.6067190718284095,11.279832389607103,16.530241895039048,-6.133949892788608
6600.0,0.5167189573110288,12.046862718027432,2.479824881671046,1.5447138655610988,3.931204861976026,28.747844163413713
6620.0,-4.008824137110819,8.64789690283258,-1.5370501580202023,-11.536691333760123,-19.005158986096646,13.008630519320773
6640.0,6.055119763781821,11.032420646865939,1.7453922886570057,23.56604282675039,24.050660145242347,-25.18936022532581
6660.0,-6.162361892979209,3.8815018305743423,-3.6582844710464832,-29.518944404262946,-18.104705478773305,-13.461280563332648
6680.0,4.394989948988504,16.893900914894196,1.0536577050297624,34.44129398549868,3.4887569851617517,26.98668895399
6700.0,-1.6736543658139507,6.5784705515604065,3.696214392174926,-36.005355965416754,14.331307360859618,12.704661133330104
6720.0,0.6399088554815653,11.941761480112405,-5.083493724703699,24.434531934852412,-26.48246395262172,-22.739703054909207
6740.0,0.3748553196752666,6.058503107041159,1.1946374883278963,-16.450461536203104,19.901547218327835,-21.720787461128126
6760.0,0.02639674168621914,11.962108471910023,0.752921181064871,-0.34352837059816466,-2.7840491256369573,19.31872231783523
6780.0,-0.45360154736638625,13.197600704594143,-0.37627789830760733,9.542678229589772,-15.380686246121943,23.0522664425348
6800.0,0.45699141468801086,5.3330118242782545,2.480368015167018,-22.467476565046336,21.777591815373217,-15.373039418990851
6820.0,0.7623046407461134,11.945776753420677,-4.652016063238806,26.897766100271255,-23.58215267506643,-27.06354033975065
6840.0,-3.3342860335291737,5.736078783621856,1.5826488326662875,-34.119992993117435,3.3075234454062152,13.260178172471113
6860.0,6.683188359780052,17.10976472753456,3.5318675614422386,36.001710467900836,12.28822942652053,29.90736349250217
6880.0,-6.958652273224762,4.80461961487318,-3.6718200463130812,-30.750136324315857,-24.246579148086113,-3.4746424629970676
6900.0,4.903425730753749,10.21789132282603,1.3361502923825648,20.784855322896718,24.33042511020166,-29.211579989004296
6920.0,-2.2962331875689213,8.552103990721239,-1.0504470775938852,-11.549030406521997,-6.861664925991903,3.575797512077081
6940.0,-1.684666974546267,12.362032172891817,0.2750814813430884,-2.7745451713358853,-11.908996176523791,29.300317780808072
6960.0,4.850936582653982,12.058841880246565,3.476359335744969,18.264421690754656,21.256425908051412,-0.6899470677805046
6980.0,-5.835060113038006,3.6744983879847593,-5.159533527828953,-24.671434041086727,-23.22127518042642,-29.876981969661784
7000.0,5.3134375153752575,14.127446592732857,1.0813847551348887,34.010909171828175,10.850743474950491,-4.881646207805063
7020.0,-3.3389948289030618,7.124722073761236,3.054377654367077,-34.1135586508263,10.24041914765786,31.068472853874
7040.0,1.3715007545574993,15.272209854548377,-2.0769788803296136,31.74063689290099,-23.843003548828445,12.083117492666322
7060.0,-0.46036768693412206,4.107935684309373,1.2001328013946726,-26.822963333364118,21.34951482319479,-29.28847418088403
7080.0,0.4523740466499418,11.131416128811093,-3.021263387122977,13.808038213198301,-11.140988674191615,-12.597851616571518
7100.0,-1.0171742627199887,11.582744426305686,0.6943614283344535,1.62643682616303,-4.058609789905393,25.108192603171442
7120.0,1.556488879514941,9.794025464504625,4.189204638495379,-10.022340333502349,20.266795584644868,17.3763597652869
7140.0,-0.3130784077502162,10.999262082955132,-4.939789724189375,23.806294543604,-25.219477832144225,-23.547193114931183
7160.0,-2.452171828137729,3.342312753473188,0.6595506703083893,-30.524922260312206,16.64235559530133,-21.465310112354597
7180.0,4.994442496056634,16.142220797187854,1.9452271039284612,34.42478635980059,5.946187844017407,19.898173501944225
7200.0,-6.957728717361519,6.944473000983185,-1.0971504774448781,-30.081840444365454,-15.721292819644841,22.202838079338036
7220.0,6.966802847028366,13.037979840992483,2.6249665435475618,33.016772869622805,20.784925770247675,-16.951737520657254
7240.0,-4.572981567992906,4.526376358825585,-3.809347326161597,-19.249240331175063,-11.323662110145278,-28.42410173590596
7260.0,0.7836901311560364,12.346730919294707,0.47184367256479576,6.869752988098211,1.4460780852050685,12.148784971535207
7280.0,2.5635277776654943,13.036616284868968,4.445853876808754,3.4521813650442406,21.34933761261637,25.872497126544044
7300.0,-5.162440718995763,6.684519030875736,-3.9324167613578322,-19.875928366673783,-25.828995767044468,-10.836035654078561
7320.0,5.67495909978442,10.818479153189038,0.5429109131537012,22.797694093386813,20.72869451332918,-27.208437649383107
7340.0,-4.628806950271839,5.427037995408762,0.45329023774239,-36.59888937407589,0.44427943802055103,2.1293431775186287
7360.0,2.1220004028673882,17.20078889531238,-0.4404840102802338,34.58958730725688,-15.566888647529938,29.83072797410166
7380.0,-1.2263191987209974,5.0963079086336975,3.2984147010091096,-31.2779195189501,24.708415857403025,-1.860579754984459
7400.0,0.8105077588988095,10.97035936656808,-4.859323677508092,23.601184196844994,-21.9476274617056,-28.142852972689827
7420.0,-1.3532993263393633,7.354087533454568,0.3417177783442663,-10.172855860803626,3.4256673893513194,-4.164095049833701
7440.0,1.7237001968273935,12.60770271644334,3.7861588676126776,-0.3171949314098925,11.13279068204748,28.39176085227847
7460.0,-1.8775766282232356,11.960669735939002,-2.7680663489009847,15.783610207977127,-21.19579110549852,12.38497562556069
7480.0,-0.2806468777207802,4.000478927165393,0.8591143380910317,-21.950157217556445,12.936432961918747,-28.017537902128815
7500.0,3.481638552077497,13.06787350627541,-1.8374443121425676,28.32036201016547,-7.560078923043893,-9.424593730356055
7520.0,-5.990588858462758,6.977454453625062,-0.11192022217449055,-34.82268309563572,-11.795678961199696,24.549467430158675
7540.0,7.020655405897557,15.75689121487497,4.501258854873575,35.39783787227274,22.40930972433805,16.062453303465468
7560.0,-6.311296084897407,4.001152378377036,-4.691583144730494,-27.03759900362883,-19.567358112299495,-24.397514975742332
7580.0,3.4302117965860024,10.891053262831006,-0.36516487993745317,19.34069809880395,12.43987259738564,-19.718313825234038
7600.0,0.4064886061941121,10.451923252572746,2.78209523756163,-7.204125057178911,8.475690615015035,22.144480117728286
7620.0,-3.6067002438785414,10.97949562630757,-1.9697688805582663,-6.6173536714758425,-21.351911249674757,24.85611352726387
7640.0,5.246245065051741,11.052612708094356,1.9084596442896735,17.315677137895094,22.00369920368175,-21.375769005911295
7660.0,-4.638992931627561,3.6113502388073995,-2.8896976523757343,-30.18588768816345,-9.271607505987996,-27.66786273387449
7680.0,3.266677298642088,15.815937956961102,-0.5010431816205229,31.99024313736009,-7.492483800251897,15.063847829448806
7700.0,-1.8351739718110758,7.028715194711767,4.799444726491194,-34.67466055748688,22.758623386427985,27.007953506715
7720.0,1.4881339313986182,13.744340149900824,-3.9478616014411365,32.8067135166672,-19.157364637038864,-11.67872324765419
7740.0,-1.9345162893311612,3.8538729526358613,-0.3720299940974076,-21.46565331867444,11.946475508108726,-32.03725831501154
7760.0,2.379468744009213,12.256547129729396,1.29250280676941,14.975244217448681,6.245388302862227,5.569773707316165
7780.0,-2.4857868564521244,12.351337441123917,-0.9200540227027456,-0.14008356410068212,-22.464535895576997,31.262740166089866
7800.0,1.2724996387038003,8.281433882126786,3.571912016199594,-13.638976912536357,23.35888341251731,-2.599023392519138
7820.0,1.4673387482865428,10.475707412244306,-3.652346589360182,22.976364798805356,-15.597303894519229,-30.874861935485338
7840.0,-4.371508246776559,5.002462676036008,-0.9892461765683573,-29.95925583919628,-5.336678104909346,-4.18656112214778
7860.0,6.64017588301942,17.25285666226543,4.657949874212768,36.420191125517725,18.529440424126715,28.158751055783387
7880.0,-7.327872781032101,5.350689322074343,-3.059549808529865,-34.222964027549715,-23.377438753976744,11.804464715583071
7900.0,5.598391612232035,11.349505611080433,0.44932846970350837,25.4252651435617,16.370435748059563,-29.703170897831793
7920.0,-2.434794117845246,6.148583028486334,-0.6605659153833278,-17.933852230634503,3.590715237786006,-12.521356001017761
7940.0,-1.3071110345594206,13.219604979065252,-1.3349714419237522,6.675281510211257,-20.777248047106305,25.591682222114525
7960.0,3.6638756008560622,11.804949694049242,4.617294943760121,2.501979707979992,22.68677886666534,14.39688040154582
7980.0,-4.37644812382879,4.987602853626843,-3.8578631671138615,-18.05456844353944,-16.570276869209007,-26.170049699565258
8000.0,3.6525111522125697,12.19343274660333,-1.449839471482735,28.30325024938276,2.840240835937262,-17.724466477267047
8020.0,-2.3023931858181186,6.873461989019562,3.95858349200553,-31.393572140815323,15.627394059321302,22.345218524882146
8040.0,1.4906378857526976,16.58575416142363,-1.7535237558328087,38.66146480407902,-25.534928755785057,23.893335777123816
8060.0,-1.546222424284785,3.684583866245947,1.5261046793460316,-29.327871362634493,15.073254795919592,-18.785919624501425
8080.0,2.4966635937406405,10.994531923615272,-1.9263509349690568,24.55533458118928,-4.056731769900345,-25.975043770290945
8100.0,-3.4941046218382863,9.575875609521157,-1.2494343486690904,-11.191871987409765,-17.438959066458864,15.32462874156337
8120.0,3.016248308585,11.93588034537656,5.2355981710546295,-2.950488782520077,22.955662017921334,25.634089139929383
8140.0,-0.697626963666918,11.137767503733077,-3.8229828645550237,13.570357247221013,-21.225691620298573,-8.812134214894904
8160.0,-2.4260837377719366,4.125617207804624,-0.8810490884057665,-24.458700288047297,3.846651995935428,-32.01427454921861
8180.0,5.233093988926134,14.399555153162062,2.1997222916453048,31.85308895235737,14.646415693471104,9.141859828734894
8200.0,-7.267972457748237,7.504902765379953,-1.7117834771096665,-29.22457263077782,-22.116266429948087,28.127477591654383
8220.0,6.826562037992309,14.217514553933912,3.1344239409805583,31.795299559874838,21.796692132949765,-1.7136233886532488
8240.0,-4.268015942941091,3.478357749408863,-3.3289227677677484,-25.98608841876189,-5.69284410862144,-33.68755398970017
8260.0,1.0531335409090887,12.28449200361801,-1.2570652298047706,15.341728270653388,-13.422992284187856,-3.080913202414059
8280.0,2.163861590586023,11.588766351998476,5.134223867440884,-6.529269966117001,22.144980675735262,29.264244324596866
8300.0,-3.284483907181236,9.380085108245565,-2.6615776842933005,-4.981570840269923,-23.383825736135993,8.589049899482601
8320.0,3.63483567944425,10.24316902838723,-0.7435489402314157,19.28960645666057,8.948200152540226,-27.76476574350986
8340.0,-2.671103607945381,4.732597046824986,0.33091447352630765,-30.12978614991276,8.069267917207158,-7.8822183911838195
8360.0,1.8463560419549851,16.91779516541614,-1.580597283745099,34.14819863357276,-21.82398672458045,26.701939861278955
8380.0,-1.9172810395016482,5.7809509005886195,4.2743528635568735,-36.11002780510203,20.580047834846606,15.29889685196001
8400.0,2.461608254525944,11.845904572948495,-3.437187368202499,28.211319751529068,-12.352914715814176,-26.860614864730024
8420.0,-3.574288485241497,5.564422678208819,-2.0747811771345908,-22.899750452231693,-4.927830623416412,-17.926527909460024
8440.0,3.9125253248887986,13.529391997474164,4.239409637089559,14.800163699527422,22.172966118872317,21.922913955071714
8460.0,-2.895055608055043,11.979500508936695,-2.0192604086737727,1.5973047926260022,-22.687475004701504,22.376126400102716
8480.0,-0.2084984982946106,6.3021569490072205,0.967593916067383,-14.165030891219983,11.766782836205929,-21.904604578599983
8500.0,3.5443675997032726,11.005047596236073,-0.6989166598132985,25.76766609762839,4.243086087252125,-24.513976254292686
8520.0,-6.537671213533571,6.692751357918143,-1.8419331676698232,-30.735454207139817,-24.252340552851177,14.448824383658806
8540.0,7.139295890796963,16.955186562500636,5.052614795646445,37.19415431345897,29.177882789173008,23.765151776725567
8560.0,-6.072499489220991,3.788365143067625,-2.465640783083765,-35.768401708734594,-12.818753167006733,-11.474680763980453
8580.0,3.3724027598527786,11.631709171391382,-2.3521792296855164,29.079358536422465,-2.231619547361141,-27.316170710590864
8600.0,-0.13147807932341943,7.721015522106507,3.031490575291171,-17.212244868447407,17.465773639322368,8.582874155292565
8620.0,-2.310605267073532,13.036295811703969,-1.3929276335022553,5.7900357890074705,-27.9039478890216,30.087519133535068
8640.0,3.174906946766773,10.542891713830755,2.2608286752616955,7.953068321803309,17.579307879551664,-1.3893387756704283
8660.0,-2.7728993447557224,4.207966444915792,-2.3740579912389004,-17.37241260666118,1.0074321014373129,-30.9293069824855
8680.0,1.6046501839017422,14.203606567740184,-2.2709162819042445,29.73163736402407,-13.361526438979364,-1.2090370869423728
8700.0,-0.8192655402142699,7.276779548315192,5.03957430530472,-36.218266844731495,23.69451829920486,30.153018921003458
8720.0,2.0586259350848954,15.17595527402501,-2.277211666255106,31.59668041841493,-17.680153122331056,4.470431884317195
8740.0,-3.3568880659323126,3.037583978994872,-1.4467984473294306,-30.761710965158457,5.179426737457211,-32.57820167116229
8760.0,4.449825433389872,12.180946856322418,1.1517708785206264,22.59234684331393,16.877785816042355,-6.653958861044955
8780.0,-4.448203621919538,10.77387863080507,-1.540365035064821,-11.705434028632354,-21.80345465050222,24.909002816044186
8800.0,2.1487416713050767,10.595771014360707,3.8615666531066903,-5.787869238856346,22.25829082159687,9.420548249020817
8820.0,1.0070347549398884,9.503118796737308,-2.2026842731513496,13.614236791084195,-5.977223150570453,-25.73438887642058
8840.0,-4.937662056268921,4.3733597718039645,-2.95956182092948,-25.243488628973637,-10.100493992953623,-16.746566050015666
8860.0,6.68913693269856,16.493697619156126,5.154506499907319,34.109749065043985,21.782552603408483,23.900278595534036
8880.0,-7.035375356209075,6.755095305218792,-1.208692110231909,-32.76217290392157,-20.867813437742683,19.23551825759514
8900.0,5.216274248200864,12.670793764661902,-0.18861269653214852,32.35916991430068,7.9073614379817965,-16.95164194602606
8920.0,-1.905466647497568,4.286678914089634,0.10170879320371061,-22.82228314951077,13.85257928228746,-25.076141602701533
8940.0,-0.8001031944919972,13.512872819156728,-2.138929514341089,16.47042852220862,-24.233223110267613,21.623703705426465
8960.0,2.5749453131364834,11.28395213553279,4.811068633323478,-2.5022836079342294,24.21469396851372,27.276555663339117
8980.0,-2.8263516042749433,7.086130468926326,-2.2771867876115257,-11.086819912372645,-4.62293275767416,-13.4216727794079
9000.0,1.7630434194231028,10.54579493728442,-2.9987609311621055,24.238973088454358,-9.24829495532118,-26.73070209309028
9020.0,-1.2366291145836013,6.328430587187966,3.7963933430599566,-32.05117790062665,20.844739145630896,8.691563148058474
9040.0,1.4196403208138353,17.002354284976803,-1.5479736489232925,34.17227219926993,-23.008235477971436,31.038295575420776
9060.0,-2.8397847228021664,4.323298725502225,1.3426793435519055,-32.49690719229246,11.46032024806056,-5.325225490169967
9080.0,4.580096915558437,11.394787694429981,-1.1206346994805572,27.136333745701748,8.118203162405495,-32.08830294510163
9100.0,-5.1091925813227785,7.039113834314115,-2.904624826132795,-17.868525030636704,-22.522933844360413,1.5874041704742554
9120.0,4.087099768730437,13.876500544867673,5.5387268953331334,9.694921640778324,23.69684764120937,30.97611142976743
9140.0,-1.0990814610273023,10.655021752329223,-1.5698811798067953,3.5134650408942005,-11.523761556663112,1.8747429960224964
9160.0,-2.8313988991195806,4.8344418321657505,-2.911889526493879,-15.439322752956611,-5.074735618243996,-30.375784768241953
9180.0,6.138650282727361,13.008036036746136,2.198155695601014,25.595915983848244,21.31265596357413,-3.60292059215262
9200.0,-7.109728554196294,7.341324151950954,-1.623289037588096,-31.964991998092884,-21.88922277186776,27.761730558249976
9220.0,6.457102408051863,15.852562210737233,2.9024965282713002,33.46290321003631,17.20183166878083,11.23211376503613
9240.0,-3.9439037092001974,2.987793367528946,-1.5965448622719192,-31.883532831455536,-4.019634025777919,-28.829241608644708
9260.0,1.1957037208041585,12.137189665987567,-3.865258651216829,21.92773318509589,-17.491458486309217,-16.421968778741046
9280.0,1.3105888705680901,9.835535035120857,5.102768884629575,-15.152768052138493,24.102661062924756,23.908683783361713
9300.0,-1.9207753660679792,11.773112878243985,-1.471488249914393,2.296689045069177,-18.701658399678454,18.80394056431612
9320.0,1.2963097317964205,9.767852524090808,-1.4105204763089114,11.07358775989277,-5.680921750029071,-25.76403431053748
9340.0,-0.7280747042316602,4.776431994248924,0.9536150008355823,-26.026441797539835,17.826132184514037,-24.39654500077422
9360.0,0.9786359543806795,15.310764618884177,-2.176594797466894,31.932388209683545,-23.399249425119933,18.79645724865929
9380.0,-1.983137196373665,7.037993470139529,4.480474250335027,-34.92494637738908,15.393903113524502,23.069145501417868
9400.0,4.018980216423283,13.153971553001393,-1.371229980968055,36.64505696941597,-5.8703787437241015,-21.493614835794208
9420.0,-5.872323086247565,3.66865953064056,-3.9796277911551714,-25.095899868779806,-17.304487638229404,-24.483688256030547
9440.0,5.392324601530184,13.394922018982065,4.277765925217654,21.461348115760046,25.19803303285891,11.51100115671096
9460.0,-3.4397616949428627,11.47288134946687,-1.0739538943234537,-7.4329299786407566,-23.24274880008568,26.454587325492728
9480.0,-0.38065944329412227,8.444476430743691,0.5284318520791363,-7.094597066124539,6.517055598558888,-4.789178768973736
9500.0,3.7943269560908965,10.163326706164087,0.23837698388887107,15.941130203185365,11.498549609457399,-27.828475869818252
9520.0,-6.220788899800597,6.39838987628085,-3.213964337600738,-27.009057325347655,-25.743863794641012,3.2541417292483126
9540.0,6.415700911382828,16.83462692393997,5.126112480300019,31.899421563851085,22.056768278072347,30.18841513162243
9560.0,-5.238676270314014,5.133420577219872,-0.8934973897137873,-36.564076568110444,-4.143896946140568,-1.3169004955972408
9580.0,2.6933829671678278,11.490176349933463,-3.2459984442025087,34.52466002452673,-13.222249687307517,-28.773010762092724
9600.0,-0.28411648927507166,5.7363148818064955,3.2223459130094474,-26.866824356882653,21.13233899599143,-6.091710364675157
9620.0,-1.0676410458124619,14.130115790070379,-1.219199822637638,14.199801848898202,-24.584775850937532,31.891206017984082
9640.0,1.0828359826869114,10.457478600775984,2.0230762245021716,-2.0852587996468777,8.58895012690099,11.150913965931265
9660.0,-0.08627906398420088,5.697453459017644,-0.3949233704297249,-14.168021436299762,9.96341218175457,-26.15620395268011
9680.0,0.25256556868462804,12.013767065313528,-3.865978946223993,20.566740379731264,-24.341458104217814,-12.572570363063369
9700.0,-1.0811707418763947,7.5013072145992306,5.025093161704266,-31.47046534827415,26.18321914153381,22.823095770450877
9720.0,3.0083941334484936,16.10771591700125,-0.5317468201478898,34.17329466906296,-11.833782357990954,19.48036080480032
9740.0,-5.265725608605154,2.867299527901153,-2.394503098337191,-37.16666173654422,-6.634047220166653,-27.990740126430772
9760.0,6.288119023031509,12.15883161659128,1.7292523608755812,30.969806007801473,21.559444363515986,-22.973882759681835
9780.0,-5.82457579930993,9.005495209654896,-1.9636434057295915,-18.66562865537314,-22.67416562937251,21.49233706653422
9800.0,2.21330486950066,12.77255042934961,3.71399404942963,4.764492601829623,15.31300528456884,21.611462915441443
9820.0,1.2754234287256103,9.071823338769494,-0.34211271791926845,2.9004601476121974,3.5942752396527347,-14.802150599149742
9840.0,-5.07196244213549,5.144481791942634,-4.402052044896551,-19.805118079460808,-21.32581039199855,-26.854891126226654
9860.0,6.421698099242303,14.897730728298624,4.382290599915258,26.370492555016032,23.060891001094316,11.449813177276509
9880.0,-6.206006961471884,7.507191428757281,-0.3742877635621906,-36.386678964602076,-13.186691419470105,31.235065506568358
9900.0,3.8897943500675805,13.6959273578265,-0.7759131885017763,35.379028002790065,1.0192676108022032,-10.138135970864806
9920.0,-2.03194328769718,2.7023258770249248,0.21582550674005652,-30.688486373760917,18.92739489161058,-30.274597984173756
9940.0,0.01720190370769001,13.605697058062894,-3.3554655879526316,26.656343734877257,-25.822743861570636,3.781750725281168
9960.0,0.5868504873289614,10.431873352854584,4.051051110901861,-11.914939996591023,15.238471146149866,29.53644303105838
9980.0,0.02739146349279772,9.738558606801503,0.2476079540735506,-0.025536637316785644,-1.0167998161841665,0.34101528126770336
