timestamp,ax,ay,az,gx,gy,gz
0.0,-0.16579730773743123,9.438333479399525,-0.04802049707489584,-1.1654022128133263,-2.78526437715239,2.4487996792725597
20.0,-0.21224386387923205,8.798852659636824,-4.557934832478082,15.920631626403846,-16.250838832223184,-30.434212663197
40.0,0.023178982929902003,6.208878986806609,3.211864654939929,-22.607946048050056,26.309278359934183,-5.681469915521511
60.0,2.2593688390479647,16.81917498081848,-0.7610808266640368,32.92463979392261,-18.75379541511091,27.60519841729975
80.0,-4.223338091750049,5.624300835776683,0.9631657512852094,-33.22083154207226,1.2683099961732538,10.172728963774048
100.0,6.288599709471235,12.179497429883144,0.2514474400022073,31.48103006293384,14.973231628010614,-27.844082352361067
120.0,-6.484637451770491,5.049170383870447,-4.450415638163108,-30.00693286491719,-27.200161328659423,-12.900629952700374
140.0,4.709426668946297,14.739900242522857,4.167423201450568,21.224089849821276,19.15697179344822,27.978501134396357
160.0,-1.300711487050977,10.033137966232873,0.6029519820051134,-3.7283584407453536,-4.783100486673639,16.47971584745142
180.0,-2.642830990627537,6.514306918237191,-3.1531875005583885,-7.228000972890826,-10.68015019029126,-23.249666186283225
200.0,4.918241560371216,10.653242653382895,2.175121837891358,17.118260717801693,24.128773599989298,-18.1992540822769
220.0,-6.386223186649243,7.660738237660213,-1.6429530354278192,-30.918947209205598,-19.108774176105136,23.51784583690661
240.0,5.314579980961056,16.732148944722734,2.6743752438904314,33.437219114954374,6.59495261362021,23.131748419691643
260.0,-2.8268562540532636,3.1587837026236025,0.6245993290406927,-36.37083518073152,13.005372182684685,-19.67464474518892
280.0,1.1095539655008324,12.08285447690797,-5.003980853345379,33.866100148846115,-28.713404304906973,-23.262659135168654
300.0,-0.1590985656169725,7.681097722461654,4.3671041997526165,-25.219182332665603,21.048956561748255,8.889433085128415
320.0,0.5348810035731433,13.499789824388348,0.4401139056062702,9.70875248016477,-7.408528241191395,25.744235384836994
340.0,-0.9803073354222727,9.455259469467762,-1.916968410124691,-0.5091527811380312,-8.543586865983789,-10.704550771853683
360.0,1.004889648758036,5.332043090297055,1.1253931048743087,-14.241717618266401,20.38237112458362,-30.452628692163415
380.0,0.44630641946995786,13.611690682691053,-3.367771640946499,23.98981140454612,-22.93823090907311,8.09501127609195
400.0,-2.8502467632506163,7.968713561591566,4.0764587346921894,-34.512788430610854,11.917628252008335,29.970943270438255
420.0,5.405690548979438,14.348799381807073,0.9966171034642386,39.26960930080762,9.906132075751167,-1.0712793805554648
440.0,-6.931645327621382,2.354666583209616,-5.29011284209319,-32.878150041802904,-20.149370160008214,-33.99665263650142
460.0,6.596480896574588,13.440419860072447,3.170640230561292,25.427457090217256,23.069407830671736,-3.11062577646711
480.0,-4.080677820811282,9.76224075387521,0.41827454446704626,-16.6227793976747,-11.826472364616233,29.132289096703957
500.0,0.05091395185151467,10.992713209967967,-0.27270443077783874,5.110332994202899,-6.834644048105217,7.115659428699205
520.0,3.334213861137423,8.688301700556275,1.0523651936309595,4.758733862424229,16.40994753187415,-30.04224161427888
540.0,-5.055909575661408,6.108061162173658,-4.197204898220237,-25.12114989393325,-25.11896235630517,-10.928004050364121
560.0,5.418151971500071,15.794769151357448,3.766276497399698,29.35896360846821,15.64877008672392,27.373755878175725
580.0,-3.8692612018112893,6.178523281489756,1.4150758990363257,-36.37929532657121,0.659593934893441,15.26822547152919
600.0,2.1692200339862993,12.727808978704273,-4.1862788838044995,34.93309107716584,-17.933787070364566,-28.003368421875045
620.0,-0.9161539159858003,3.3933202211677154,2.3387767083019804,-31.60493675546276,23.911041577879786,-20.779646240713646
640.0,0.7369203337386859,15.407082673851017,-0.8766876025743953,20.149856739491362,-20.149134143336685,20.123795611807722
660.0,-1.5417159826816138,10.428838795482594,1.8460692261238667,-11.08540534719282,-1.0542642004690226,24.538572842812613
680.0,2.0500223980861745,7.682946282247624,1.2160787612143322,-0.06453070325017762,17.89722926339151,-17.459985384510826
700.0,-1.071793992309527,10.206312946872917,-5.278974390587218,13.16882875914684,-22.66190753840228,-23.42025109643037
720.0,-0.6299828208389704,7.802692245718044,3.6912014438509746,-22.550848036302433,17.760373171525103,13.334639026092342
740.0,4.038315129003951,16.759529230884663,1.1699473064043686,31.60363341551396,-3.2727761650632567,26.299844788077653
760.0,-6.096002434872506,3.681710917174028,-2.6344574769498004,-32.29608366288723,-14.60729456242298,-9.259184304041623
780.0,7.166347411263077,12.043150310324352,1.4925410147781275,33.21718839044053,20.82771445830582,-27.998375588774312
800.0,-5.854150405025729,6.82557074792396,-2.2357747657868727,-26.74378476925354,-22.02955790002012,6.9032716611053395
820.0,2.7103063352726,14.55976356911935,2.3231275142538075,17.063526619349886,2.48961708346192,28.761748805366835
840.0,1.329128876503428,8.792487184830705,1.6895843041613807,-4.067745525924668,14.64100669033951,-6.4120667407995615
860.0,-3.9957194373130522,6.470304500094868,-5.5384766930415985,-9.722737515350072,-22.87448182779372,-28.277944087819137
880.0,5.616832770045426,12.177628584176832,2.6463615866908525,21.255467948798564,24.009305485977443,0.9143654073554894
900.0,-4.516577237812253,7.800692953860078,1.1730668281730328,-29.65684370080429,-4.274881249148956,28.900974054434954
920.0,3.240996686124274,15.321214178237254,-1.1146810416638526,32.704188558095105,-11.323050655324618,6.722406948746012
940.0,-1.8269853072169877,2.456452260107937,1.383234928085062,-33.456928273192595,21.273716065846767,-28.290623812746922
960.0,1.2776361048988425,13.731535261112336,-3.991237475726182,28.400543845610542,-24.6860465254108,-13.114298745161062
980.0,-1.35722191744286,8.981579749533417,3.0175150808286517,-22.21046084795768,10.151349018845579,25.974813837540584
1000.0,1.9969656653112589,12.825746287913178,2.380201052362395,12.25467604317084,6.58521072817711,13.713058985949528
1020.0,-2.3879525991766033,8.078680041757098,-5.0212707475687,3.075684654589623,-20.591663003721578,-27.667972962575348
1040.0,0.7705224469867523,6.263033865709038,2.029785550488408,-16.32615750018055,21.17654994299411,-16.458844478943824
1060.0,1.8430934815589737,15.16122468315471,-0.01920105320387491,25.78314995685432,-9.80186145469884,20.491757503090696
1080.0,-5.27788700089076,6.701645433577637,0.3000921243703717,-30.87780329407997,-9.280724862311391,18.920650749535742
1100.0,7.38878248284901,13.221329993055969,1.865490985154841,32.109440158977904,23.53727868549231,-19.91360765937419
1120.0,-7.102960161431421,3.2917311025238734,-5.248253512752018,-33.35403162929615,-23.24416211278159,-21.420939269076076
1140.0,4.956757113880755,14.767848792645548,2.9211475551407937,22.358876901086084,16.176923033490276,17.749580142155754
1160.0,-1.2494460767753937,10.07851488773667,2.1117934083533223,-15.960651177100207,5.05891137665436,26.476032462037484
1180.0,-2.127491471139081,9.068572569003157,-3.6550944635152627,-1.0819356355793732,-18.56000279574975,-12.503427821511174
1200.0,4.14813150543592,8.921351913157858,1.9193762469300613,13.538880387918347,26.408602817791582,-27.181060941585883
1220.0,-4.477131697326082,7.819649992907801,-2.2323488558385622,-19.90772998072113,-13.805828701719314,5.115829278902666
1240.0,3.6009985623146763,16.55746502067287,1.4613126507484253,33.36065023692,-5.593480067213017,27.90039421044287
1260.0,-2.1946058816701655,4.686188704956662,2.2864682434814707,-33.29963895403956,17.535246673754195,-4.645452713141214
1280.0,0.9482885855688328,12.435450026680893,-5.421798466412363,29.976560819171155,-28.914226131531187,-29.53742752545394
1300.0,-1.6974564758471267,5.776164340680897,2.6317303762936692,-27.50164056607764,17.45322855167345,-0.17632220439671248
1320.0,2.4322579204963866,14.913961105119135,2.0079648717358585,18.690976132848938,0.9427135885905676,25.112796924334283
1340.0,-3.221525266860596,8.77061164766942,-2.0109983291924447,-8.401347130680488,-19.471623383059324,4.0620962910461245
1360.0,2.6742030436307687,6.344338190308287,1.5915862132353258,-1.4582801393420963,24.015176758843445,-33.1908055208007
1380.0,-0.3620316146952238,11.809000554277183,-2.847361575847211,20.63787217279865,-20.851991963890523,-10.865392587425807
1400.0,-2.848893392393946,8.431582149391875,2.103812675300191,-28.634351950626527,2.422477736496224,28.105674250583593
1420.0,6.024383573229375,15.62130468207225,3.391438226282186,36.48883449835823,16.446887381813493,10.98766829727485
1440.0,-7.339683453756829,2.367732304328417,-5.1938053519252785,-35.88786579823861,-20.969862680571428,-28.482107833324868
1460.0,6.485837183877792,13.026588509084192,1.838928454684771,32.817092619401976,15.706313237419959,-15.117748109038532
1480.0,-3.635699901716141,8.289941225721103,1.0256602447961136,-26.49458538512265,-3.5435492764077066,24.32018072673359
1500.0,0.5490529829258313,13.561454463359544,-0.7860300910124242,12.684537916100885,-10.628494813816316,19.910450853088715
1520.0,2.993231434765572,7.5075858859321905,1.7504322282571607,-0.28706080764684194,25.53053615480987,-19.73686381252606
1540.0,-3.906187466910752,6.14235668568962,-4.480490613706619,-14.528846368146997,-19.107811253365657,-23.279869211432214
1560.0,3.7179982439486423,14.589707789194529,1.770037366463344,24.354183813383447,5.722557781754328,19.868988721254244
1580.0,-2.2312931780054783,7.680623552219449,3.163504539772763,-32.527676645808526,14.638461807700697,25.783929145573524
1600.0,1.8715807051335083,13.631247852315418,-4.6628851214697145,33.752914869700206,-24.029322228975253,-14.01239630939123
1620.0,-1.5892098647585742,2.3287135634725,1.076975960734209,-32.5795812303151,23.793266633643885,-31.090979146902026
1640.0,2.6798808165620285,14.611497468485036,-0.6001877683006952,27.170200743820615,-10.507795357288419,10.014075506041804
1660.0,-3.157784360388572,9.424811674504305,0.5810861808935432,-19.619272562661273,-9.494825169691657,28.53323949125385
1680.0,3.7528528998127424,10.24482814103445,2.9920128763816267,9.71591822721578,19.312671856290024,-6.350546335404545
1700.0,-2.148271047536507,7.970003442190795,-5.067904053904556,7.766986090618432,-22.89399391514062,-31.09713314086348
1720.0,-1.0060343105987264,7.467575890026874,2.123196373975574,-15.382231033959831,14.78598009757951,4.126830536359515
1740.0,4.493812466843295,16.07496176603954,2.943868692611323,27.51357680977442,7.750859015327534,30.342512686088202
1760.0,-6.63756095715567,5.284851160496808,-2.7659910204963856,-29.724342640173003,-18.414413774853713,0.2083155340075593
1780.0,7.490188682571144,12.443135591833236,1.3481739862112843,34.88447308659929,24.443571651045318,-28.599437785728163
1800.0,-6.010111633993212,4.885889887756787,-2.455708945346492,-32.65073847544683,-13.766325516803255,-6.09585147162695
1820.0,2.767126559175019,15.542952956694979,1.1968160025099919,24.449200363807606,-6.308801399550478,29.66528806993554
1840.0,0.7422796992200104,8.812056597163467,3.3936207163445755,-10.747711292485558,20.416518263379967,13.793801418593965
1860.0,-3.077451279076435,7.7314482601846715,-4.928961553219337,-1.4786680749682064,-24.769513712699478,-25.414657977192668
1880.0,3.5776693768076395,10.155703225304816,1.2407333135397212,10.750039665990474,13.33283524612691,-15.114816069874756
1900.0,-2.738472851912554,8.297321369719263,1.965669854622553,-25.498570562610833,4.696061927496,27.82086721855075
1920.0,1.640840495817095,15.923816973963548,-1.0730879277497412,30.223141265183358,-19.935983358816323,20.154747173414428
1940.0,-1.5361982161414318,3.200353389009235,1.9820137145109027,-33.275417649871926,25.473513210736378,-20.499870196493113
1960.0,2.277662019305748,12.658246937626359,-3.7045835781453986,36.797885231406475,-16.643304588110134,-25.616482374722896
1980.0,-3.4051546455011,7.377659193217515,1.0489330176425486,-22.600669139252375,-0.7339500999556735,21.83876905713654
2000.0,4.428002106620945,14.570711303476813,4.069694620059409,19.90233287438231,22.817179404471585,26.39125036683916
2020.0,-3.6136295826463436,7.872258388577338,-4.551402160763637,-7.809979486089965,-23.098100819560095,-13.633939157427378
2040.0,1.5629071171600315,6.454357146892034,1.1966471090266946,-6.52389359334953,19.699626085603782,-26.858111982367905
2060.0,2.2551789087562075,13.305146005392913,0.49458002390113603,17.683896268856987,-1.8616084779898334,8.59687726130102
2080.0,-5.300899885357947,8.214190104197776,-0.8575977083379529,-30.161819907687295,-11.72022355965883,29.518180470824273
2100.0,7.17176360100594,13.864240105926973,3.0804279650876394,32.5281324089864,26.724747608492684,-7.244553755362098
2120.0,-6.922938862304875,1.884635720679563,-5.213496263079318,-33.586488826699885,-23.30762439942249,-28.365643036212905
2140.0,4.531087480218857,14.676474433270904,0.7683037226345083,25.816486095844358,5.909458610684516,4.1843196983686735
2160.0,-1.486675546413875,9.088090842941265,4.039987956045285,-22.017456505974756,15.091252194158235,31.744954552351135
2180.0,-1.0086488002639684,11.222268800202082,-3.469420490170023,10.102814867116722,-22.447905336763487,0.26556292244330215
2200.0,2.5738183596379614,7.282487648498999,0.9696146189597475,1.270207831735703,17.178997952605894,-28.81735123038878
2220.0,-2.4589533891713895,7.421264414808898,-1.2425248951663292,-15.702332444751626,-5.916803422918631,-2.2465075745684073
2240.0,1.5797581178299396,15.524960090693925,-0.06205295769811087,23.770454908219225,-12.334129906403012,26.439583408715276
2260.0,-1.2424086456191494,6.028708978644345,3.837432152787318,-31.729138967289256,24.45202017770644,11.009734984790862
2280.0,1.3278725618849974,12.251477374433291,-4.7181026620269595,36.87042440953975,-23.186079194463172,-29.37235869190072
2300.0,-3.1286901501792608,3.7190706870095163,0.3962023188997652,-32.78116340137532,4.661217825262046,-10.823472621687348
2320.0,4.841967689029882,15.787096747389418,2.908539368887036,27.67435403352252,11.394928447182798,23.93430375648397
2340.0,-4.731747535481629,8.62145797944894,-1.8865353298181797,-17.860958561000004,-22.560642092409932,20.101674513111924
2360.0,3.2427568786620244,8.719745959076754,1.4013363245577648,5.737054341773433,25.58589125694949,-25.86409542358244
2380.0,-0.44270114008406003,9.115190242355528,-2.7485880340820104,9.094937573464284,-12.401980484408421,-20.29895692565723
2400.0,-3.411980353538778,8.581513005496024,0.3132013853291196,-20.076818635421503,-6.135132050468461,22.89790953200405
2420.0,6.185273290240013,15.560694002805022,4.481574819360285,27.960665390736477,24.19975044953671,24.13528880997595
2440.0,-7.345424220222573,3.6275262840474665,-4.372748784309937,-37.570682537449215,-24.436304521300926,-16.028441557097324
2460.0,6.200328939214575,12.604612696730976,-0.3351253238961709,31.728852119953295,10.195710463660744,-29.566376553633578
2480.0,-3.0775521389290286,6.4540225892771135,1.6823343891093607,-26.88620600299427,5.035113013185372,14.770205829881363
2500.0,0.4493100035955456,15.566818139215362,-0.8604634521371033,22.25449337753083,-19.84234867579781,32.854659401974104
2520.0,0.9521994182848229,7.423936362096037,2.804675263670544,-8.322267470304524,26.67054525029879,-8.867669193101431
2540.0,-2.598906373016045,7.063186152053378,-3.9255325744653953,-3.0562619897656336,-16.73257348201112,-29.661727681612767
2560.0,1.4077799521638308,12.381487183858798,0.3161197271758935,13.458811174836626,-3.4567238608632556,7.306736249492843
2580.0,-0.8946003327355332,8.168615453061696,5.1159790185091305,-26.008066243198112,19.628981036724284,30.199634643122977
2600.0,1.0082310242729298,14.121086088033055,-3.7934583918183375,30.291171764440154,-26.38133719173411,-0.357221465067137
2620.0,-2.477538117361222,2.730621357692129,0.4126316951466862,-33.58312237581879,15.417468864860846,-26.92368486391462
2640.0,4.390792969816646,14.326626952487755,-0.407523094949092,32.07550550724366,2.9108830691726917,-5.370658271470548
2660.0,-5.561916914308861,8.442912485317938,-0.5059152267592822,-25.398669819527868,-14.845246915270017,26.10553501995858
2680.0,4.882239600742164,13.12345423709328,4.025866460667714,16.887395350285768,24.634174806714494,6.762807264509372
2700.0,-2.6211831381973463,7.03126454581461,-4.32478488475649,-3.5319220873223,-18.527333993201893,-24.68509821423421
2720.0,-1.2811319205820313,7.454109189720303,-0.5219558270335853,-6.441303455314228,0.15576329698385538,-11.15909701040592
2740.0,4.3083812599826645,14.728431842813265,3.8914226113474863,18.77260171548343,16.66204315084537,25.748867107894423
2760.0,-6.518640900369937,6.864486960693325,-2.3469854740039464,-32.10166991675808,-24.548488350985032,14.499431403724062
2780.0,7.041811691783009,12.496822593667828,1.1000104819569456,33.875281382344546,18.647808963987014,-24.582665752864127
2800.0,-5.017074168413945,3.34487072666166,-1.9751579267732498,-33.76695041439467,-5.532606379241624,-20.83804876644341
2820.0,1.9728017382536114,16.28766674061584,-0.9937526652685967,28.02473904616886,-15.210544714182593,20.22996296582788
2840.0,0.2804316736364297,8.618237423708829,4.814567027571519,-17.601372488506662,24.95857934899112,21.55390650193705
2860.0,-1.3588804610151048,9.653012863139951,-4.270236423000433,9.105437883002136,-19.287410449525016,-17.055810803256534
2880.0,1.307009939409693,8.071806759867302,-0.6779946131940088,4.374863377801732,8.04313786527992,-27.36146607395256
2900.0,-0.5274935388323779,8.96388332528464,2.635325412551646,-14.964188793150257,7.397075532690011,17.26581191415227
2920.0,0.1339382617143407,15.50981420029456,-1.7247415565973472,24.431170082583353,-23.34218529854553,29.93627557945887
2940.0,-1.478330136881748,3.8945282721177095,2.2402645972035105,-34.4214823003453,23.418598515986712,-10.591862689635557
2960.0,3.7369675593472964,12.368180100922068,-3.2970720010610846,34.66540006331951,-9.930066204207357,-30.34010711866036
2980.0,-5.375880576203483,5.56543763431396,-0.6501801534162254,-33.89677257649339,-8.198408302589957,1.8771619045873944
3000.0,6.136436290964511,16.06228832934619,4.930523822108839,25.31270809846861,25.865236347716266,27.859043987293802
3020.0,-5.15094427777432,7.334046685846718,-3.5651266973684086,-14.195667279040025,-23.702970747809825,-1.990906475932929
3040.0,1.6809536561936171,7.780556430062302,-0.26066256209588684,3.306322329997723,14.186912575621644,-27.034565882358297
3060.0,2.3964524524676607,10.847969316661489,0.9863055283853878,9.623724847609056,8.32696850736267,-0.2985842225107933
3080.0,-5.314746133247043,9.108684311880264,-1.0954790908801382,-18.992510969852297,-21.687055940271794,23.878000557215973
3100.0,6.602205373221507,14.38672137740064,3.913562167359835,25.513976827854115,25.712241434610434,8.021837284669854
3120.0,-6.030092021830323,2.0814273273790143,-3.514456050814483,-36.627199737341925,-13.186489070268575,-26.225218891372116
3140.0,3.8195302401493065,14.20071343105363,-1.189168886785288,33.28298464181878,-6.222053231312422,-10.773860276860868
3160.0,-1.3719274341724215,7.460378764993202,4.882175562793243,-29.029089892206702,19.90533171447582,26.11157705422279
3180.0,-0.2113491550573892,13.986080905505595,-2.683123956559284,20.679520437731014,-23.528304837915986,15.33378277252565
3200.0,0.3441030967488759,6.314406280048407,0.5855968768352741,-7.720672662477078,13.471035149923107,-22.951139452564643
3220.0,-0.034331233002301884,7.711881621230328,-0.5795747079069248,-4.635439175442842,6.305085348215381,-22.48089946636266
3240.0,0.08319106053871972,14.053889844965092,-1.38985836934883,12.963524362765995,-21.540591441583295,21.171631198700577
3260.0,-0.6917453476615713,7.697046273658098,4.950033629507598,-23.438036803689148,24.485045619951432,21.30686480490879
3280.0,2.0531830366293202,12.656071941766532,-3.5374543737895845,32.6481894179362,-19.334505417216707,-18.380307609823173
3300.0,-4.512745965076876,2.7169342667258127,-1.5795170887498422,-35.11234292251324,0.5780551670398393,-26.623012340552837
3320.0,6.4306218094962055,15.679025529331232,3.3045288296343935,29.463110755137638,14.163913829727758,15.231385314944044
3340.0,-6.377912216963739,8.969717418717007,-1.8766567118415232,-22.40638930590484,-26.430252146262596,25.57187297922129
3360.0,3.9477463683386804,11.464653018070464,2.0775858496588078,13.455573070029534,16.557798460494727,-9.649305292014
3380.0,-0.633611349677378,7.003598869851054,-2.3348532728201272,0.29288009056828623,-2.1691662376775955,-30.694262146965954
3400.0,-3.504812280424696,8.53126558105512,-1.8107850697660672,-10.17389592358748,-13.809158645235987,10.471446400871894
3420.0,5.687252498216469,14.937967014596493,5.230874833260021,20.987814507862367,24.67446993112299,27.598043019661205
3440.0,-6.491431105526394,5.3254101318125615,-3.065951050324039,-27.970722914861753,-20.01343870829912,-1.868188526434345
3460.0,5.169288027945808,12.126299031733936,-1.766184698384394,36.35586639908555,4.325808980704021,-29.321388197332343
3480.0,-2.5585545034508606,4.871965818850375,1.7291430466686561,-28.087734120053973,15.878141473333365,-2.452959880429142
3500.0,0.6176734963384588,16.7602953119181,-1.8125459706046345,30.93851833293872,-21.706498781553613,28.087246318163842
3520.0,-0.10014695390956863,7.573080542422191,3.4560053265244144,-20.02081002463663,19.33180354179101,3.574054054861082
3540.0,0.4963263282466708,9.005516922178908,-3.0365548348149067,7.061250952438992,-6.943874828427861,-31.506616659201292
3560.0,-0.6548188540460718,9.684406548358467,-2.5186887144369865,4.273104524247429,-12.91693645257428,-10.070569454434139
3580.0,0.22840532542393094,9.761758261147266,5.048247666654768,-19.12791656537164,23.09997494544247,25.209373819700154
3600.0,0.9254472021190592,15.004773638277799,-1.9585194413359532,25.35547525227369,-22.634889962256036,12.12729525568729
3620.0,-3.410753057486828,3.322806155403123,-0.6562819533730514,-31.48104112058563,11.84426938425679,-24.332369699586078
3640.0,5.490134215277999,13.515472256000283,0.407420592633691,34.06293481935026,10.94412706655483,-14.087954166614121
3660.0,-6.6732918749134775,7.383003739150312,-1.6982785392884592,-32.97098153153199,-24.12730877978805,28.263649452181724
3680.0,5.990002242851359,14.98507577516422,4.783437975624196,22.636488524310952,22.989852108882914,20.3758640393517
3700.0,-2.928836427155756,5.890899376745069,-3.164830840579003,-12.59128274981862,-13.60234163959123,-20.877531840248853
3720.0,-0.6903645039914378,8.212337484332656,-2.5751232583643544,2.6922166833942205,-9.281637025425038,-25.690698536874955
3740.0,4.242100059282332,13.054180601348893,4.427307217435929,11.41412148233832,20.395947068579986,16.326580019980558
3760.0,-6.139312107351519,8.663441535583445,-1.8785663043887129,-24.245519632562086,-23.626239210187123,24.403041895347602
3780.0,5.242037020106278,12.753195033398752,0.6448282749928256,30.64941446083625,13.23861709064873,-12.349568174928153
3800.0,-4.1810192136547695,2.3873933478586005,-0.9585650885925375,-33.52473061022597,7.343133003076195,-25.924307313846437
3820.0,1.9901385139557592,15.149146642589457,-2.3383193169226186,33.41225971627125,-19.06995132286847,4.987738670723925
3840.0,-0.5995252351740965,8.243464295847339,5.256963065354411,-28.09653953431154,23.253237788550887,26.465047235051234
3860.0,0.821606764511031,12.30036758324641,-2.5851716784897487,20.38045133609597,-16.047882305311912,-4.719194142547719
3880.0,-1.2777988181080675,6.4935643568613095,-2.4065402701867047,-2.181094941222776,-5.934143627445453,-29.232376204329462
3900.0,1.5198110319516582,8.845755305928275,2.609810626644697,-6.739628954449355,21.78721528999581,-0.42869400438375294
3920.0,-0.5219425522709692,15.013601948172932,-1.316088705181525,17.001320264335213,-25.13624589186571,29.731982457984238
3940.0,-1.9035656566888877,6.369194029601232,2.4806718448323193,-27.489777367371765,13.645919764363795,2.7914595160713
3960.0,4.312468441320996,12.295208385314728,-1.7752253118590133,33.4367471509075,1.8849293259265179,-30.332182298618896
3980.0,-6.717014478454059,4.175085429172204,-3.231802895955449,-31.534105075146815,-17.486060819890017,-11.975069311420178
4000.0,7.127263231095139,17.195420395982996,5.333126894420017,32.83023039392222,26.968304361357863,27.245817747392707
4020.0,-5.125680542407815,7.247550524932227,-2.0990199536840786,-22.04808514591774,-20.964059983274524,10.346378103334084
4040.0,2.022600901450274,9.593622209530336,-1.7662496501142122,15.378122775665233,3.514284671059613,-26.67209981508981
4060.0,1.677468732296827,8.431676538690935,1.210816006048416,1.9207729611518036,15.577739034631344,-13.551886732979895
4080.0,-4.439118453810956,9.37458777708888,-1.989257291441246,-13.27588963000654,-28.236539402829898,20.828930073854377
4100.0,5.575529422597434,14.840204181381635,3.814330908317469,22.48701565147608,16.73720971152433,20.02187516115731
4120.0,-4.271883031782656,3.500438118644266,-1.8542090771006035,-33.03548794488874,-0.7353529188536134,-20.114713540076743
4140.0,2.676229246927092,12.769322755931967,-3.135275234211126,36.6230038757489,-12.841444226909804,-21.23444446761512
4160.0,-1.6586156743431162,6.467533995175784,4.843808594617348,-32.348681669570674,24.360452845243078,15.402096511840499
4180.0,0.9937328290567257,15.872059143383874,-1.5378620126594353,24.84610981384341,-18.504775794548507,24.739954093404478
4200.0,-1.2493214418758158,6.225529377840044,0.207249448926545,-18.46069694829995,5.30871424988069,-15.666071941031836
4220.0,1.9211583158880268,8.294417133315065,-0.20866468218606918,3.3024368155922583,11.056282587257977,-28.244228451728834
4240.0,-1.8103365052700775,11.570226821527058,-2.316628392434266,5.132480377500858,-21.725723268907284,6.380573489876687
4260.0,0.017914203023611325,9.349873054143027,4.68779767006136,-19.6951943085518,25.080126219291785,27.30651844745081
4280.0,2.7783501837868947,13.566033392463886,-1.5081549447601257,28.581695807898544,-6.441283701863403,-4.90913375751614
4300.0,-5.511046227621132,2.2845951412691328,-3.696685557223157,-34.15279077740985,-11.696194349338425,-27.70224806871847
4320.0,7.204051991428897,14.901733442842813,3.016534691572018,35.17239685779119,22.347824387904634,0.20103196703045412
4340.0,-6.955525636372826,8.096142370511231,-1.0792682175957902,-30.689723093835333,-25.7671146038451,27.31654249834348
4360.0,4.306361297949725,13.311835878872083,1.8247816380573099,20.852603285382703,13.529753965468522,3.6405033522488366
4380.0,-0.6371984632120244,5.5022366835643615,-0.3486722916352455,-14.649516600897895,7.850808235417526,-29.420229412697168
4400.0,-2.5948969568435793,9.003094434689908,-3.145095824071066,-0.09337068926760717,-20.658475091245403,-6.594935664668485
4420.0,4.738324489413797,13.780514369052376,5.487474083733313,13.907808937963798,23.065338646748163,27.806586082774267
4440.0,-4.56804396731558,7.2168376479141525,-1.0272793494692627,-24.9357997934521,-14.12630005254954,10.583545006394617
4460.0,3.5736952875892953,12.361443522868047,-2.856944488952754,29.242966775323268,-6.321293920220929,-30.445972838360525
4480.0,-1.796930419125527,3.5849154447225904,2.0389912559282717,-30.12195691438636,20.515100244932587,-14.833512940939869
4500.0,1.6364430100454563,16.550480821946586,-1.5179278369711005,32.40304160627416,-29.231518151973248,26.275823569501274
4520.0,-1.8184668933203973,7.61439055844087,3.5964686176498404,-27.160551868831345,14.067860804827088,18.925331663645327
4540.0,2.347605429755252,10.378007735530296,-1.0107938303001656,18.25757914460401,1.5727416564407122,-19.08008944715865
4560.0,-2.8813997547747467,7.321403591585438,-4.151456433569201,-3.2572292006997037,-16.604987526258665,-17.999665955187172
4580.0,1.9831357021745082,10.28589635666192,4.469966669945361,-7.308565872159258,27.899204731473425,18.219394127911436
4600.0,0.8660847048929756,14.892492768994916,-0.5952286432378684,17.42401489542219,-18.25888282014644,25.894847772143684
4620.0,-3.6390015150971995,4.294661133923422,-1.3524494901834023,-30.964734883198762,-2.360309896428827,-16.1775659746461
4640.0,6.380125818484556,12.344299806248234,0.6152861091506877,34.6674429244649,16.37132788115594,-24.31185805533954
4660.0,-7.362601260084351,5.901151516924628,-2.8394795544318985,-33.6290196963862,-24.554586641956856,9.874922246060397
4680.0,5.98738527644119,16.510528141209576,4.363109172081621,29.42825014768605,13.863768265289558,27.80243133820283
4700.0,-2.8955760301704774,6.053826506335351,-0.9484912164891687,-22.651906449763267,0.6641938820187565,-6.310986156021198
4720.0,-0.4020527210111996,8.960738804725443,-4.232204985734402,8.711304793872944,-16.47707918254171,-30.76101697529745
4740.0,3.5342883120417685,10.59422414136009,3.6236695100345173,3.000304951634726,24.52756225358093,0.9776339295814194
4760.0,-4.409291504465433,10.166362803084386,-1.137636793923806,-18.17069853374147,-17.747116428861013,32.05294577288937
4780.0,3.3710754611596325,13.333097848133246,0.5488744932152688,24.769905186658338,3.00942807246494,-1.6776587047987848
4800.0,-2.437122979437854,2.3841294029315603,-0.04046934193244903,-34.88707686913877,17.91026468866736,-30.478022887593536
4820.0,1.511851267000679,14.198972729342811,-3.5659160958422564,36.77754414012891,-24.703977625070817,-4.188612773956107
4840.0,-1.8912366360428343,7.345698394888492,5.1228946438561165,-32.2420992190268,20.97898177668445,29.46222370263004
4860.0,2.8983534056216045,14.158410187794217,-0.1406397415771885,28.812835828212005,-5.578766980325823,7.079555642156125
4880.0,-3.439192911712213,5.510656024230794,-3.837052259944138,-17.55227882217424,-13.2524135405633,-27.293401504867802
4900.0,3.312144423094158,9.018266083258567,2.2519942727164977,6.979150467163921,20.85398388567569,-15.875012081507693
4920.0,-1.596762358899202,13.292414420744775,-1.7109209529219804,7.476784275925821,-23.880072369713744,28.79060971558931
4940.0,-1.731846064074898,8.187299754630931,2.4131210290664504,-24.448833531269607,7.366259825963191,21.12528147676428
4960.0,5.005108200610865,12.012744282400666,0.18508033417044617,26.594327500341162,10.867443410132442,-24.11579235585372
4980.0,-7.288238483896303,3.2401615605269183,-4.3285609536100536,-34.69961115229462,-23.01580089531853,-21.376903291595408
5000.0,6.8177872388986565,16.227795607532386,4.4564635100517815,32.82288494705826,25.54426594867934,20.88122906546836
5020.0,-4.97298777354102,7.510185020996612,0.09088061507866442,-29.255514045985016,-13.822477922941182,26.570326578656267
5040.0,1.5420252210607837,11.298379979807347,-2.5433667908655546,18.699932213210822,-8.95437496245039,-15.633457756420954
5060.0,1.5274153778549076,6.3121204565254425,1.1665619455875151,-12.81035847102493,20.157856597109976,-23.776644728027826
5080.0,-3.1559253038388877,10.13853768349503,-2.6760325464931207,-6.080274152789517,-21.591576713134856,9.247110551407335
5100.0,3.709861774282107,14.51256973702455,3.289488804935023,17.815028021550155,13.16333255679221,27.501158783611224
5120.0,-2.659245116035519,5.073928743721529,0.10498180975088067,-23.410628807735016,6.855077757684919,-7.960765074456784
5140.0,1.6134174164374013,12.237451729945057,-4.720830723958079,32.14059991783356,-21.446812706950887,-28.904341809444883
5160.0,-1.8829121399987012,5.222188544372532,3.750241614311617,-34.51848608207004,24.77071278970481,1.2694827450749302
5180.0,2.521301345118287,16.901398413264506,-0.3690322919709172,34.106001026658284,-13.48975756158134,29.502087123816988
5200.0,-3.6570210613515552,6.1421391875409,-0.7211342613836786,-24.191743334769082,-1.8546314396173729,0.7840331262696902
5220.0,4.139644468823734,9.444448950401892,0.7877343694763074,13.482181631139943,19.870519661397317,-31.805339580246596
5240.0,-3.0468292361930134,9.169315028341211,-3.8442403238772496,-1.7853908548286073,-24.7097463281802,-5.29425819191973
5260.0,0.31572100339055065,10.989085597632815,4.149551423943797,-10.96318511625443,18.81788807036771,27.149877463437505
5280.0,2.7811032660676402,13.738401797114964,0.4783765232216661,21.596469289715326,1.8197010901621158,5.751390312869291
5300.0,-6.2809092101300905,3.1710337675441203,-4.450607589676609,-29.95591461785451,-18.116792740916026,-26.545978203820514
5320.0,7.365717114732371,14.00740460853231,2.721781533690691,33.3276308404301,26.071177850348818,-9.72485870697922
5340.0,-6.655892876563136,7.19910833324384,-0.7909917478922133,-31.747334289499687,-14.64242640533873,24.921776777411086
5360.0,3.8577354849322743,15.38540597628051,1.0827697131915848,27.324120841670172,0.6899880899814379,15.503222244634985
5380.0,-0.5129372483016797,4.775530697480898,0.6702980526407235,-21.816306039902614,15.66480484818525,-24.928313214734736
5400.0,-1.8605868805232784,9.59236592353615,-4.5244464141789615,5.468907500293586,-23.97620787343271,-20.928526866882816
5420.0,2.9825750781482934,12.260747293635456,3.9082016860385247,3.545096691994069,20.900409980610416,23.473217013763826
5440.0,-2.6011558426515053,9.332132014643662,1.2800603721388806,-18.13099666566836,-6.188541584961489,22.3608051538504
5460.0,1.6317550315743392,11.81030775986772,-3.6623960815927807,25.83634793249015,-13.105815014856192,-18.44723740290848
5480.0,-1.1324850560596047,2.818316511181755,1.8998967743335051,-33.14144713871123,23.171217859151096,-27.895214418365246
5500.0,1.8369213788084011,15.899813081273887,-2.312944796846798,35.89149940563302,-21.956831856563497,13.524715646244093
5520.0,-3.1834928780321134,7.467073884122042,2.4748176824149453,-33.93318689425383,5.306049284154097,25.81859677291665
5540.0,4.750511240570798,12.723177140883191,1.1537810962501045,20.396926053911763,12.289036010344525,-13.135796155274942
5560.0,-4.99400305304804,5.8787726329708745,-5.320299077207407,-12.408436453688731,-21.085797546170824,-27.10917743673794
5580.0,3.0539616243253938,10.496072554231683,3.3170158765679,5.217900421841108,22.930927745207544,5.836530355904689
5600.0,0.7996921720815469,13.784222492082813,0.841811842838662,8.203842373508593,-8.319421617662911,28.25577281435536
5620.0,-3.923744096810375,6.225981646443741,-1.5617839802305449,-20.916713820623034,-10.654024856490665,-2.343970563032757
5640.0,7.065241154799286,11.688898072237443,1.5198839643533413,33.51578350469046,20.02354737275585,-32.072599456382754
5660.0,-7.111016257984316,4.693212109300165,-3.335727081908769,-33.8057835761372,-24.77866507606973,0.5872065637225687
5680.0,5.501380572989029,16.65143459933474,3.132201905994517,32.65848457743365,7.792968486224543,30.748694266557244
5700.0,-2.755588322445556,6.32706930885226,2.0264502482617344,-30.512871361564798,5.296779189142281,6.581454583509032
5720.0,-0.08867546417600933,10.124844522662558,-4.81878355737763,18.633554746487444,-21.485803816969195,-26.57405168361094
5740.0,2.1712740937251978,7.766239101001393,2.7985596890322753,-9.769717953727454,20.543090915837873,-11.658928543130514
5760.0,-2.439849263675267,11.295939527294642,-0.042003515874388025,-4.52558070055163,-14.563025078030853,31.032755553620063
5780.0,1.4749331708021052,13.669416278698206,-0.010134327173224267,17.17229347216045,-4.393915036904714,15.187638046835207
5800.0,-0.9558682191631996,4.108025727251895,1.2326272558238633,-27.234434158643776,25.62247878620949,-28.811931057148236
5820.0,1.4513351575527484,13.408058320672652,-4.884728670872905,30.33119489823481,-27.17164005195286,-15.915012286394902
5840.0,-2.67838684435578,6.961460320639617,3.2936565274852607,-35.91736185682796,14.071992659674601,22.628942038336987
5860.0,4.669492380865744,16.224608591872137,2.0862327729080956,30.937720815396627,2.6163671904394787,23.951800643508463
5880.0,-5.484414918455602,4.921165068909639,-3.897613382276993,-21.85948513170674,-18.277157665122665,-20.965162082645037
5900.0,4.682402085530085,9.733269433776076,2.2009311807542797,16.153523325976778,25.68515491263929,-24.72161378444549
5920.0,-2.079402777968087,11.224731693912513,-0.9390495481179448,3.6780714653191815,-14.331198300165347,16.764191717090185
5940.0,-1.8333710046760465,10.132247659660344,1.408135004044575,-13.65463979061147,-3.130435779104908,26.526129258221527
5960.0,4.943736793711338,11.807929089210086,1.5458128848663868,24.12185812512536,18.841800214392983,-10.324882494486047
5980.0,-6.963750466579513,3.1981021231462528,-5.52798711752085,-33.94812652135413,-23.94702114041622,-24.66888187471694
6000.0,6.465292035155919,15.505442382691196,3.3658461389430063,34.42047145198249,17.513044030269903,11.004541862129734
6020.0,-4.523285545459438,7.646312422191041,1.8245200043936014,-35.04075556658985,-1.168253146452841,26.3037932378956
6040.0,1.613281636299731,13.430649173239544,-2.500333372637469,24.752949736642886,-14.652319541394506,-1.2552269740254531
6060.0,0.5955847104731378,4.752164901376928,1.537113675035853,-17.172522330727592,26.941534848196774,-28.58346194652039
6080.0,-1.5618947420246823,10.875971496864342,-2.809820983643334,8.18783266903937,-20.950914273930678,-2.007547724152898
6100.0,1.3302002136343145,12.97357091282054,2.3838705091152583,6.848717530309826,2.5921204995715676,31.396372401602417
6120.0,-1.2008846233135049,7.551242494721341,2.3298503429521413,-16.18468526620459,11.482098756712908,6.565384691789083
6140.0,0.6266649067095941,11.589835261779356,-5.154267996994017,30.590282103523514,-24.061256719191935,-28.943336815045363
6160.0,-1.7362127398109608,4.395186887874321,2.360885119672406,-27.777463773463673,21.067934196669903,-11.388066614544393
6180.0,3.6978232416093637,17.014922964712916,1.2273859203512076,33.828018669053094,-3.5144055615193506,30.043451209147875
6200.0,-5.6007335425067915,6.827086860198118,-0.7289961703311809,-32.78554018688472,-14.819147047524755,10.909062970989837
6220.0,5.870467252594484,11.038596909691842,1.7827978912474138,23.707259445553735,22.990094951669246,-26.803966820845883
6240.0,-4.209387978295772,6.631921593404966,-4.364821168164642,-12.732262659655806,-22.67791228867746,-17.90699500122018
6260.0,1.003945241911963,11.870457635009462,2.879070194752903,0.8679850027096137,9.622723038046697,22.619187987137757
6280.0,3.060351649618835,13.54054341987261,2.678435419464182,13.170357026410771,12.972811447255529,20.78244597673548
6300.0,-6.1545421350388345,4.852486781159101,-4.46383069253537,-24.255179849217818,-22.631176531095104,-21.201733891027615
6320.0,6.858653393407383,12.317264034277638,1.9262328053501423,32.761226488660164,25.301767355345707,-24.664142288284395
6340.0,-5.66718608936443,6.389501599297071,-0.17821320362909898,-38.68022268679354,-13.274452073761877,17.070110635783433
6360.0,3.1898275769688262,16.66572469556263,0.6219908496738256,33.797046890341456,-4.942571062769115,27.952359506069325
6380.0,-0.9552182601301221,5.070465825406913,2.3520397728401226,-27.753267785611033,18.793122002207127,-15.014429102875186
6400.0,-0.8291339069788086,10.061801693697552,-5.038054925148019,16.89986338737713,-26.891435940650776,-28.115019816834504
6420.0,0.8814143170255865,9.878493660688079,2.1150208471125054,-1.8847495866585007,7.054896867920412,7.3666504399927115
6440.0,0.14986561367508305,10.924358841474017,2.3487978898387354,-8.975204677823191,10.674041087348154,27.751082587824065
6460.0,-0.09617110258559142,11.566047422713151,-3.201094523023662,14.282165396511589,-21.172316466406706,-4.559414326629662
6480.0,-0.7568578876247888,3.246316123614845,1.6758377486181317,-28.54166644508206,23.6974899150393,-32.232501293868516
6500.0,2.567885128849563,14.752008330276318,-1.5558426254094715,34.38179829290427,-13.099352378178937,-0.3824278528634826
6520.0,-4.670323496064628,7.321127101473976,1.2190852834579482,-33.38574840747382,-6.393246554467675,27.600359602797933
6540.0,6.115299565639674,14.430508901437275,2.946155476884005,29.46359881928545,22.31392832079271,4.058183065764609
6560.0,-5.882209994534506,4.045087337452137,-5.456245947166273,-21.966525307344167,-25.664658089808963,-29.302502032528462
6580.0,3.4094912295931312,10.814444936846737,1.534689153834714,9.47753419814843,16.7244097750778,-8.650341367001063
6600.0,0.31856233312345106,12.310240643143777,2.3116725222214116,3.3487393892984145,0.7674954610673699,29.999476051903393
6620.0,-3.921173973493195,8.722171078282843,-1.616439538959754,-13.327602042515927,-19.21663286010335,11.776693894449796
6640.0,6.119215010803773,10.696268696801493,2.124061376934085,22.453875897304183,23.283721004122796,-27.272435313098867
6660.0,-5.93647816970327,3.99416873317205,-3.668682730991918,-33.09732772046505,-18.75923730779678,-15.207192194791583
6680.0,4.267126589781357,16.955689235495797,1.5733444048008867,32.43276874136715,0.48730875436842763,22.769038917970374
6700.0,-2.4355378425164225,6.445872486133965,3.4386251913563344,-29.0018140849376,17.521609768194853,23.044977543039128
6720.0,0.4851680083481633,11.709927506150718,-4.809271679541089,27.394349108387544,-24.114895542601058,-24.12264313939887
6740.0,0.2532996965602584,5.702439093865584,1.0910159862587474,-16.027031656499208,20.232589863109162,-19.208724420038273
6760.0,-0.07585381581671036,12.115832530154162,0.9076386682441769,4.676461300736508,-7.557975184704901,19.766795045139357
6780.0,-0.16608804680025208,12.814042487066068,-0.06365350808327441,7.488330218528556,-14.045321307256291,25.77879402730535
6800.0,0.07167183468736552,5.957826376497792,2.6572734187924727,-20.84796678828872,24.206871084167254,-15.408625308042577
6820.0,1.4136859110404008,11.778538476882598,-4.550727992149361,28.2245574931066,-19.40466747143666,-27.73065439203642
6840.0,-3.5052481536886972,6.016637422613757,1.5284336701460823,-34.22973315418494,6.434796399527778,8.318244673876867
6860.0,6.193323936101721,16.90062164755029,3.3571136200528318,30.7809619989285,14.072743561603865,30.518624375755387
6880.0,-6.64852405769021,4.848540297874525,-4.0451458344494835,-31.25840109620442,-25.106488956261348,-8.016314186342248
6900.0,5.300268074347532,10.485517306309962,1.010716815567431,21.089371463766923,21.422186144094724,-29.14712855836866
6920.0,-2.1499607262780813,8.57990378101787,-1.052900945853776,-7.120162340694591,-9.682662393611091,6.875041980306551
6940.0,-1.9137117938202832,12.042460064595456,0.45465906902697345,-5.085756829039948,-10.057007810523851,32.679048847063996
6960.0,4.907509522865493,12.118543624567664,3.3898540285163383,16.447704820164674,24.47852279843576,4.25556273492853
6980.0,-6.619079931419478,3.84139376514394,-5.460273955468908,-27.08865513307327,-21.826186479179047,-32.35135054219025
7000.0,5.304190283215253,13.767849441050107,0.7731573669912678,31.404109037782217,10.120186141221085,-6.295917586924043
7020.0,-3.568680951201485,7.468262548940482,3.154392516942443,-35.59025293060363,10.314224810545735,32.13314016429028
7040.0,1.7709821079482042,15.303648610249805,-2.3595219490090313,33.772730098769166,-17.008694650864634,10.570946204600776
7060.0,-0.325630698719425,3.842442128870473,1.212600951783079,-28.823545840478918,25.28635426789901,-29.46512204370881
7080.0,0.5268517921813849,10.223618235333207,-2.7827500853129505,15.077122668016107,-11.191208742920566,-13.443417920046546
7100.0,-1.382572725943921,11.558652435865433,0.9559904066893323,-4.499665593148638,-6.7793719655559,25.774944284193325
7120.0,1.1392049195318121,9.878411426139744,4.012444029875837,-12.403215317656453,22.904704593973737,19.462565373709396
7140.0,-0.176523564570305,10.977439962816147,-5.255942811846586,25.136463479296403,-24.665557569041663,-23.98452288601078
7160.0,-1.9345310988562634,3.925875236392754,0.5501882334077756,-24.3786554884865,10.624073648937326,-20.397380206968645
7180.0,4.6296536991998956,16.44600403253335,1.8570372969370121,35.427151265461774,5.736323266929981,20.08696759994252
7200.0,-7.09882087034717,6.967111513857446,-0.8967181968645327,-35.93932863035709,-19.67355210916257,23.665400124684357
7220.0,6.468391456751742,12.928793002278285,2.407563212110594,28.820674017139567,24.62851282654978,-16.980690403709684
7240.0,-4.4294949026042145,4.922163425466956,-4.04413649648205,-22.167346581994014,-18.977424717240613,-24.41297061258504
7260.0,0.932113044513412,12.009090129557665,0.43390334500866956,7.6893369443100905,-4.256904353655284,11.063470331197408
7280.0,2.710662087200718,12.748804720546904,4.669741734385113,2.0462711440530446,19.84715793253209,24.60299960709287
7300.0,-5.132887366028388,6.711140096614631,-3.536585581227739,-14.731017367310104,-28.177364829605086,-7.2455425365980055
7320.0,5.281861513261781,11.394128576693038,0.6393115866907128,27.05216005310586,15.918994877419301,-33.29998320920338
7340.0,-4.164403475763831,5.657609609373612,0.3030960908831988,-31.26117508950908,-1.8023001397976206,5.402894885484409
7360.0,2.4826437393048533,17.564273980425376,-0.2953072930079464,34.521630425891765,-12.897289506360217,29.004208895736465
7380.0,-1.2778644386839901,5.486801342775508,3.4344545493169836,-33.18415112841068,23.847211588073257,0.5920834217121949
7400.0,0.5240677048444957,10.9202449984999,-4.592336013196009,23.54252361857381,-19.31972880431767,-26.08126401391823
7420.0,-1.5450015118932197,7.428110137693283,0.29240133245384087,-13.97902798142285,0.396005603928963,-7.087956940537782
7440.0,1.6891649035068277,12.403740357424123,3.5703508423624237,0.5696914782699822,14.504086907051816,31.302950440781743
7460.0,-1.4725763690092588,12.131818597604811,-2.87817740469906,9.9745372035916,-25.66584551868092,9.957498924335825
7480.0,-0.8574271235757803,4.028102554983125,0.9866554437440486,-24.201999774796484,20.547009540807412,-26.96980628884765
7500.0,3.260898728489331,13.027303437819642,-1.4534068404510627,28.123672876164147,-5.7838443845412,-10.112012733805036
7520.0,-6.263812352897709,7.32522579704547,-0.01764964898706116,-31.984419142082437,-12.940309404379631,28.031843891752693
7540.0,7.43850250143373,16.33046672213947,4.296578095486264,31.798533854351174,27.87943487423226,14.10332654829165
7560.0,-6.296531996264953,3.640213638728369,-4.799767329740456,-30.042275489949432,-22.8527175017994,-24.99269140092244
7580.0,3.443112148941862,10.91707425201675,-0.4369990082431038,16.842299126024642,7.043035188924134,-22.22927242232609
7600.0,0.418780186892991,10.375415820470085,2.6502269992825513,-7.6816129873239145,10.220230402224589,16.317194696144217
7620.0,-3.5064250164281523,10.952405602544744,-1.7068541874096441,-4.836027046787265,-24.318011837653213,22.864854069914628
7640.0,4.832793875876776,11.215062761999123,2.0326715763203183,14.905688056911544,24.654139860974535,-15.177650471573644
7660.0,-4.656546065412872,3.7740663559248766,-2.9922204928907337,-26.413656589622057,-6.577446174514696,-28.652981441754005
7680.0,2.953415481772078,15.906808021557461,-0.22362984398417093,34.113195945946295,-6.699887540027854,15.398099235773998
7700.0,-1.4246030359675308,7.453020895479689,4.837622936772729,-35.425206435492484,24.674836518803197,27.119026376784632
7720.0,1.3804006813188887,13.684655016673378,-3.9992658231979545,34.221496890874135,-23.25967025082965,-9.396724652549581
7740.0,-1.7959723498139721,3.5795409883329077,-0.25751230160836597,-24.411083287242008,10.23241248252008,-30.40192694207105
7760.0,2.809010948822002,12.036997666357605,1.2766436065673283,14.92939406740874,10.338356408086604,3.7993233687094516
7780.0,-2.6253182569221947,12.470089036372894,-0.6942236068648594,-1.182684842014306,-20.027701049800648,26.42569426638005
7800.0,1.3872500308767055,8.07225396409888,3.313235737984629,-10.723487908815692,23.436958605071432,-3.1818972553012355
7820.0,1.6554551236488784,10.699145037114672,-3.785965159798737,21.069384941301067,-13.320123609871446,-30.692762030105463
7840.0,-4.8250347975505825,4.943435760124055,-0.6355469788873478,-30.954556231466206,-2.8632557849469737,-4.645436166142522
7860.0,7.040828924637324,16.758496937680995,4.330863100162938,30.821028323743384,20.947691915575255,30.4234814549777
7880.0,-7.389765707973425,5.506882666832331,-3.393201909145561,-34.095216034996405,-22.71954035747732,6.556349015008639
7900.0,5.610358683841586,11.551113503021028,0.11162630538765733,26.65440180625256,17.131501812219955,-27.344467479532526
7920.0,-2.2986373398681494,6.17904114014639,-0.5948686981945881,-16.896560876737112,5.205421873747183,-12.393148932500551
7940.0,-1.5001402356575542,13.238869331130388,-0.9295856661923019,6.2609317879937985,-16.622045952226244,29.732258168176354
7960.0,3.6060606998602984,11.723175572899777,4.68181785780104,4.830618572155464,22.862390756809877,16.751362260195258
7980.0,-4.377059432478004,4.8878372035359,-4.179059201130711,-16.89544511220188,-17.498615945474096,-28.064555481034976
8000.0,4.130899196150648,12.374619391243744,-1.2305845011479288,24.734600562750053,-1.2506874682700873,-21.147722711008473
8020.0,-2.0403360183066708,6.949271374321649,4.044030370243383,-35.70545712945991,16.812746002411423,18.4485332736461
8040.0,1.5497689898390135,16.292580115416175,-2.0980277906309936,33.82883909211991,-24.06734318466176,20.6355511876216
8060.0,-1.6879399775713473,3.666204503873576,1.5861217619892636,-30.644318982592853,17.989716007040954,-17.17859651511527
8080.0,2.5342716352801,11.088051935880026,-1.88580987748652,22.74988521805463,0.5523113185022441,-23.621259808497943
8100.0,-2.9119043697291223,9.313411721548166,-1.1684731585070132,-8.456077118253496,-13.642885293513569,15.175726348048345
8120.0,2.925595329020661,11.875756352300705,5.202208037730246,-1.0777086664504774,29.93504727534364,28.449174732444746
8140.0,-0.8606495070872167,11.015830407013851,-3.483318721563071,13.719032035602183,-20.352366613247522,-11.495714693960046
8160.0,-2.484549759992048,3.9537753604849124,-1.3363196838260456,-20.8391651004144,6.935240365360791,-30.13621981750767
8180.0,5.719260226668447,15.211557648155512,2.4465789017691164,32.21465546222426,12.956338156037697,8.729292473756217
8200.0,-7.765442831646752,7.44493500797914,-1.4428210960892431,-34.49824703569476,-22.366381670309817,32.70363291983352
8220.0,6.730199744299952,14.214873599113725,2.554786924350194,31.97547708463755,25.461472725806313,-1.5467000267147981
8240.0,-4.502695601369455,3.317102237868933,-3.0533060844656545,-28.15491738705348,-4.571249648442576,-25.995084556467337
8260.0,0.9346792445665927,12.159739347080299,-1.608739870662744,18.72264400757525,-10.920533488647724,0.805837873674573
8280.0,2.292132834423146,11.703812049447668,5.347397926378675,-7.1579187812721345,23.843043860957792,29.262749807684887
8300.0,-3.7048406710653587,9.472488577499337,-2.839653447131065,-1.9665096658085774,-22.04875602450936,6.362700569210205
8320.0,3.787325535389607,10.030766187723582,-0.29185845188239284,19.41240049218072,9.6090110081694,-25.817665516825834
8340.0,-2.4207173388735566,4.951949450446331,0.47724445086586503,-28.393890820934182,11.272686719187597,-10.58421771716656
8360.0,1.628682714584621,16.84563942484105,-1.0198280307386887,33.56553020179414,-25.08286012058065,24.529265587674473
8380.0,-1.5124463310554745,6.027240973378512,4.0919303308800075,-33.79416201238246,22.936122589238373,16.98595659096933
8400.0,2.323201048672754,12.02898808347921,-3.2483964664642073,31.51766948323121,-11.997610073615675,-27.857195737546164
8420.0,-3.595312168945388,5.396452466704596,-2.43813666371456,-21.727757629446238,-5.936356384377801,-14.569287136158398
8440.0,3.948303514778206,13.039484727991628,4.583100990674615,11.197861273241422,20.7096526115515,21.936537133718826
8460.0,-2.620855073274226,11.666888047298537,-2.008013881319018,1.4892515322722473,-22.510682307248825,19.974400449896063
8480.0,-0.3496400092227673,6.3811093161976356,0.6560904242586985,-12.121621677878947,15.881759102579553,-18.56803965981926
8500.0,3.5339824812040925,11.65571054696708,-0.8379469864705695,22.202044939548745,5.028850168341617,-21.90562452799606
8520.0,-6.535270106574693,6.729280684642996,-1.6965967080127384,-32.48498392102599,-19.392522010322455,18.507875038948875
8540.0,7.6521833117789,17.04855689729028,5.411008373375143,36.642322029105785,24.604939674158327,21.153318134412928
8560.0,-6.2316783513955425,3.760398029125214,-3.0182603290468424,-32.74869242461484,-17.304837975750768,-9.813264636314857
8580.0,3.3896745400805917,11.060215731051798,-1.947245440206342,27.01794096736836,-3.5899564577223253,-30.982880124510643
8600.0,0.10768116468160638,8.283113567640727,3.314179136007395,-22.962786012020416,15.873861344126796,5.715051684318343
8620.0,-2.602983595572821,13.03289507582269,-1.4509543630701858,5.323176107042861,-23.60598639059584,32.3787589235178
8640.0,3.131361055351314,10.695113110477145,2.397600831768202,9.327230817696666,18.794009929446446,2.028278259163428
8660.0,-2.6042025532072053,4.351848018981096,-2.426052141099464,-19.50879281406666,1.3779866277994215,-27.43285307174992
8680.0,1.6859936250712984,13.963919258476274,-2.482399077708677,31.018093661882858,-19.05888970557999,0.42044597916050075
8700.0,-1.085467452541857,7.602348856841558,6.093965107000656,-31.33464984130532,27.804931152061926,29.08962360263038
8720.0,2.135945422911944,15.206451859468274,-2.3202410595284797,33.90089111129162,-18.93359904506228,3.7538237719827245
8740.0,-3.700856586567475,3.2208209658903892,-1.4991216175855082,-31.66059457308644,2.4033005172887227,-29.206143222141502
8760.0,4.536776126911179,11.83804282865985,1.8044887438511306,20.448629290241158,17.897408864039004,-10.325939684230375
8780.0,-4.1984682199282926,10.45912537884277,-1.9381109875596179,-8.587880937886718,-28.370321939094122,28.838270068205443
8800.0,2.061806488795836,10.276019250020292,3.7445314884542324,-2.7937056149263126,19.854580022634043,10.26219545652609
8820.0,1.2589042648527204,9.898590473838714,-2.60519682068347,16.868941651053742,-4.685630783935021,-27.044459435570086
8840.0,-4.68308617352845,4.708515491136151,-3.3552071205921203,-24.001336348151035,-13.926828207370548,-19.72618566535629
8860.0,7.053205710794403,16.25579643069057,4.787229471338967,34.07990334756939,24.642063653994313,23.49392404784033
8880.0,-7.148035156170825,6.121573224207892,-1.946869450548743,-37.008418283947414,-24.297510828399567,23.384513128357845
8900.0,4.951938944010598,13.020025940677602,-0.06938756433703946,31.093321769577827,10.62314415147101,-22.021172075788826
8920.0,-2.0742646028201137,4.292110815248094,0.03345794726475656,-24.6950691389733,12.66545757904374,-21.90958510442104
8940.0,-0.75493725542451,13.275561886098243,-2.177268933013613,17.912643561088238,-20.726435013744517,15.81717101784471
8960.0,2.3301106465255197,11.42772308324716,4.891433610496264,-2.435518713761457,23.618419958564406,23.063152261571165
8980.0,-2.3466935810579574,7.4696996759246135,-1.9842189923104891,-9.620432221980678,-9.502530089199228,-14.248785273867169
9000.0,1.8023851962799848,10.69701157947534,-3.0642880311187546,22.847319552823592,-11.007245798963343,-25.670542867515874
9020.0,-1.1878562345735824,6.120798191139802,3.9100057278586613,-33.55201420303409,24.159192363944946,9.385411052531877
9040.0,1.3956492101014932,17.578431427601103,-1.1771840152496047,35.64291458239998,-21.6041614047241,24.599372120879618
9060.0,-3.051404266507373,4.465970212115291,1.3596748996784958,-37.719772801386746,9.38096059294363,-4.161381581095995
9080.0,4.792165489745976,11.546072085830472,-0.8787421498464594,32.768822018440254,6.318905986912331,-30.782894339413495
9100.0,-5.245275463036717,6.919526486976865,-3.1622849871727094,-22.933766287360918,-20.197386506958704,2.951271035286789
9120.0,4.154636511401741,13.54306683198349,5.1442862811816825,8.04307594514151,23.627028267226187,29.56599673247315
9140.0,-0.9820915514790696,10.547709775922275,-1.6664465139673827,4.397178169501679,-12.393833288411912,6.75274906800783
9160.0,-2.4455765701928156,5.378501016213061,-2.2834094981160944,-15.867446361785383,-4.083805475444422,-27.463550109296918
9180.0,5.571460578425647,12.935665793047702,2.2260502191430596,28.89872225477756,21.768699264721434,-7.428573352416311
9200.0,-7.369007201393998,7.4242881919238775,-1.6455400997227672,-36.20685256257725,-27.350375765006653,27.416800472037885
9220.0,6.551610706825358,15.637268925174567,3.2050703825230986,34.20277412352608,15.858967989643338,9.770592663611701
9240.0,-3.9263687329726777,2.9369954128732383,-1.605762556731412,-32.07686706779238,5.9412998386122045,-24.001684018691
9260.0,0.8754096525085551,12.276996955701492,-3.622860914354631,26.183088625618982,-19.119919349433346,-13.662652515829958
9280.0,1.3612033340058665,9.607718601733513,4.9580002290288885,-12.912641493773073,23.43769038364419,25.944783367159538
9300.0,-2.0991446922512575,11.489211113484277,-1.1003415668485668,4.391705049388413,-15.079219601112925,18.297212738685246
9320.0,1.3662538709364935,9.492482639438855,-1.0199794215281655,10.00919595655093,-0.17256802377286215,-22.82567987808589
9340.0,-0.6967973610564804,4.6096254550658395,0.7743992068919165,-18.573759916853835,17.21952025760173,-21.322229759513643
9360.0,0.7682483139069561,15.67818365658503,-2.258910721881469,27.820051419952932,-23.963726379493576,19.80228936100815
9380.0,-1.7151795540197408,6.884366057444108,3.904778123444549,-34.543156944022634,19.36500527644262,23.51058102104239
9400.0,4.379441364899466,13.45770466364422,-1.328312405799726,33.50392711466916,-2.9439346275496296,-15.173780630322264
9420.0,-5.466492994324347,3.4809930446699555,-4.210487912570616,-29.7129454549409,-15.411842126211432,-28.39813772249643
9440.0,5.610978994513445,13.744690054570734,4.1488331741281375,20.234652323018864,25.678657878843197,15.33067554896735
9460.0,-3.7587846755277377,11.173611496441644,-1.0406166001880643,-6.146254583335265,-20.56001860803601,31.178334109009022
9480.0,0.09520452829941897,8.64519297688698,0.11107089076056392,-5.920134676044407,3.501823789221226,-9.052761305384212
9500.0,3.87515418897392,10.046059470259777,-0.25103352891293407,14.458990198048957,14.051166367434424,-28.708274366191485
9520.0,-6.2650275253425045,6.3498691615316,-3.0561989604804065,-28.0908974666462,-24.359161652505335,-0.6555337977663536
9540.0,6.651954602460797,17.245045230137322,5.045901457783844,35.772709402229566,20.866321002440415,28.878719583232648
9560.0,-4.893873152007275,5.089512525951629,-0.9388221996596366,-36.35942149487747,-7.637479275883834,1.2539291685978302
9580.0,3.0140087934083426,11.489873227973685,-3.6170527524191076,32.505865541375805,-7.237490239820014,-28.702740250746764
9600.0,-0.32822701165077234,5.895375389018111,2.990024380074826,-23.916625720803598,24.028646265678052,-2.7093636782360906
9620.0,-1.25320052265868,14.456813422273914,-1.3634680689457477,11.67329648664263,-23.89515054530121,26.18725846329185
9640.0,0.9284470098882969,10.266537871087769,1.9003644801665973,-2.162992918430628,8.20956433094871,8.16613157374525
9660.0,-0.5897800749974736,5.823724855254933,-0.5389181914798655,-10.880374195994971,6.118240701456207,-27.1223390393661
9680.0,0.05831314099513929,11.890534981432417,-4.04606383372704,23.13720495513603,-26.14177831397972,-13.559891380053921
9700.0,-1.1851608408058587,7.3464536472389526,5.022084391250789,-27.1964701066088,24.049628835117986,27.26969309000952
9720.0,3.1317619826466663,16.071664005505095,-0.6093246153422062,33.023646689045876,-11.798619904860322,18.359705372456283
9740.0,-5.048368242832162,3.3936652503782425,-2.6696548389752346,-33.41287292450882,-4.573135237563999,-22.62143889874165
9760.0,6.275787071785754,11.887604894406747,1.82114024744783,28.266488533603486,19.95359001667902,-23.345721606914946
9780.0,-5.638043217163256,9.006534378320538,-2.269371381704132,-16.406369204239095,-25.398588919748647,18.03755497542653
9800.0,2.3371440089551005,12.69464269019372,3.723853952278976,5.22333100076423,14.580029162927248,23.678061662251714
9820.0,1.3824734643181578,9.407732326588809,-0.7395450605096958,3.1569740249723783,6.653737296562203,-14.74651733036697
9840.0,-4.907487544560473,4.865348380641294,-4.554020490441615,-17.695037588120176,-20.06086413708237,-23.902163665013568
9860.0,6.6157665562582,14.679552400655231,4.2447581615647705,27.523994361241936,24.450100606958234,12.127730858057772
9880.0,-6.252345301464643,6.831059472991385,-0.5299281253134102,-33.076937565149954,-18.188095729644285,29.3026077564201
9900.0,4.017638177197962,14.380047090713887,-0.9237671422110035,37.84645278352371,-1.711357007264192,-12.671693437146093
9920.0,-1.9171859768493191,2.949816555498581,0.7674070127113929,-28.439610695659894,18.499154597173376,-31.491156091324896
9940.0,0.0543069268686107,13.773451453781727,-2.99594587018411,21.634660297281954,-24.141047599676615,0.8789398003815383
9960.0,0.312586569772284,10.701326841037286,4.3350734126933785,-11.637908480851301,16.744418681788773,28.236744209646563
9980.0,-0.03672182053624219,9.931840068744608,0.2745590314050539,-2.31735234242122,0.24016095270478172,0.6486735160349936
