timestamp,ax,ay,az,gx,gy,gz
0.0,0.08818971350434063,9.92989536242209,-0.0666637382542309,-1.7601002274525945,1.499771443969318,-2.7317524624516496
20.0,-0.35089533572081066,9.114034929966104,-4.185417915503606,13.26643736916149,-19.87602070964883,-31.362577004850507
40.0,-0.14043790158182975,5.984848520148483,3.263840847662825,-22.189780397622354,23.819989038992727,-4.356963291734979
60.0,1.8466431223110666,16.689863112067233,-0.5298492573558666,32.55118991701286,-21.06424072976693,31.87783817153369
80.0,-4.151899991331383,5.630216136459179,1.4169601301617152,-34.14324867570227,6.759188453343912,7.614048992582954
100.0,5.960853330793562,12.439667883862999,0.4673892674117063,32.94440597127727,13.499744677528405,-26.552722241872797
120.0,-6.180510462843004,5.114600994849184,-4.376675328160078,-25.408630758961607,-26.71312749340314,-11.996118653633191
140.0,5.267611236938901,14.889013035648768,4.665371717347941,15.892800802745029,21.84500843005625,28.230740856560317
160.0,-1.2925640597455437,10.393236278151214,0.21265017732487962,-3.511255373098018,-8.829423285763351,16.33777138811251
180.0,-2.7009769296920845,6.519773994012114,-3.284076577642378,-6.557778547287282,-18.611053072278732,-21.87598865517127
200.0,5.221945595968971,11.053994970895781,2.0666315371052737,19.030833745647595,26.291592022450793,-19.906897309680286
220.0,-6.281620390302369,7.256367236688708,-1.8423863509490603,-25.563342575008257,-22.704297986413575,23.775021057780453
240.0,5.2163336193869645,16.562261011243034,2.6452263762846444,30.17014982539819,6.275367408324188,26.538242931146083
260.0,-3.1894135784590674,3.174152000185031,0.5109513669887172,-31.90519799554332,9.794760206785956,-18.90600180327916
280.0,1.0670550689821479,11.996693516077338,-4.6542556686857095,32.277594976761954,-22.969258656500283,-24.076281040821154
300.0,0.23828279584979373,7.80269984103587,4.4037569140233614,-22.675967563491376,19.768633679151737,19.090538708723205
320.0,0.5325730394595088,13.936039986244776,0.582939374956588,13.572475127244493,-7.166376097880129,28.38363500661689
340.0,-0.6991912794166288,9.29338346628651,-2.121369291153663,4.901797101811084,-8.275749434743531,-8.45450619321567
360.0,1.0883326560070046,5.303425955364856,1.0372242024009917,-12.938622906300171,15.896046320023821,-29.98425311204287
380.0,0.43146497012802687,13.809124319772948,-2.6612767220727926,21.896146071553385,-24.069516747200908,4.11519919128404
400.0,-2.5606758313824245,7.65411617245131,3.9389375325234157,-32.35581250804578,9.902286378038287,29.02782885969696
420.0,5.364275020829996,14.549080183318138,0.8026636057027313,36.40372032824604,5.63127273365401,-3.5854600124206044
440.0,-6.736913686626993,2.5869616761415206,-5.178824532481109,-30.57864192535957,-22.801546799463285,-31.267555503108667
460.0,6.508660823584739,13.208414729839799,3.435366481619139,29.495010313880304,24.105570010848975,-4.9007812396441714
480.0,-3.8792138560508054,9.832994814026621,0.04540742027221756,-16.50403758268081,-14.745192630286416,29.041538496501314
500.0,-0.02847842025697593,11.11202657501774,-0.09708548787592719,6.648935771643569,-6.761750240828329,5.6735630266918395
520.0,3.5517406934511113,8.551643949653958,1.0560528820711133,10.94900669993405,21.244733792218074,-31.976139342662815
540.0,-5.5346395941704785,6.014832996912464,-4.290967794159068,-21.46645467078991,-23.492335139259744,-12.796010482514117
560.0,5.701671238904241,16.08452285944361,4.190708363117511,30.832271100864418,16.55894050208006,24.884794777784492
580.0,-4.1147165568750195,5.855570894259562,1.5274792817477365,-32.35359644156934,0.4910395340607061,13.689235698058486
600.0,2.247457903804539,12.7031279299527,-4.592353035010413,37.40881350119078,-20.867939682399893,-22.63496393718869
620.0,-1.0064459679386075,3.6874936128169677,2.1727548459037136,-28.14736580414905,24.121994229662704,-19.60742333888216
640.0,0.9481805912926954,14.525474989377509,-0.7383831724308457,19.253322088750252,-14.729045015369344,15.734206673597985
660.0,-1.6444605665281549,10.378062382654445,1.5693237715603916,-12.158526291644037,0.2532829693570353,23.76694189354794
680.0,2.06529473849995,7.862886579465877,1.14545876022112,-1.647748506204607,17.390466792653616,-18.63078933357212
700.0,-0.8567984646717469,9.640214616683389,-4.941539849465149,13.29639192287169,-24.348934940486064,-26.765499849470448
720.0,-1.0297607119067878,7.592794508750797,3.4735322351151683,-27.383612411778643,15.647132215405524,13.212939358753491
740.0,4.229013252964571,16.52284498114332,1.3973059079143677,31.101215445070068,-2.4556897597865466,24.980474927543316
760.0,-6.373950517967197,3.921523281902092,-2.8949405472523733,-32.766555722071,-13.469394434483144,-7.393865422556439
780.0,7.093971675197512,12.173014260590197,1.5134880173702197,29.73231604940645,26.657779885412317,-25.663677514007052
800.0,-5.741880925945169,6.605318682450867,-2.3435377514664113,-29.70099137427781,-20.955570767243778,7.17344408604757
820.0,2.479261152717734,14.84563228089692,2.4943554676290645,17.016949132770716,5.284197088893596,29.0248276338367
840.0,1.110612868074849,9.330045946726608,1.08213481742462,2.070876751863779,14.499622547073933,1.498561699661228
860.0,-4.309338818565074,5.600280807515151,-5.317483985597705,-9.129591375049861,-23.94352350975086,-28.90730415882476
880.0,5.422680184272788,12.359059227022753,3.241246280936076,22.079661814749862,20.03257686833424,-2.2200525665432504
900.0,-4.576552522166035,8.332691043144393,0.8037881209493286,-29.603481119109397,-5.5155190186879945,30.071897887074705
920.0,2.68476514965867,15.385308864841251,-1.297665297631566,37.927618048629014,-10.276211551166483,5.421072025243081
940.0,-1.5236163085799106,2.258885998381587,1.2450799653558602,-37.76654246037286,24.081630915414955,-30.24877751237302
960.0,1.0734728481194955,13.249996092389146,-3.629707223280134,30.087022717335692,-21.50685845922044,-9.288893257520964
980.0,-1.6136956126936899,8.920063623012787,2.871984313347506,-21.149039520836396,4.719191349363578,29.44483276270859
1000.0,2.3183875039596304,12.570026873553783,2.372682169304415,12.080719931593809,5.989095742065588,14.866307013616028
1020.0,-2.262871914931833,8.285031493557975,-4.701489879929921,1.901799379713904,-22.672446525301062,-23.277185075387813
1040.0,0.9703581601767619,6.098879469134667,2.4107251639807745,-17.70677025301323,21.115836371306166,-14.978786882222098
1060.0,1.8189451190351964,15.876364336567727,0.2351978255459622,22.903303603930983,-12.55415276960456,21.956932461414084
1080.0,-4.880152240645285,7.107642251752476,0.10166852326829035,-33.0493009969,-6.539407662211432,21.930002664384997
1100.0,6.967123241904657,13.129295741230251,1.8032808515273206,34.116514686782885,21.965604707627048,-20.089191451658838
1120.0,-7.212782090724189,2.939795927779115,-5.349862270331628,-32.300155694941225,-25.204340182876372,-27.475456641299434
1140.0,4.680632182107438,14.96739418306904,2.432526787572791,25.71525982976889,16.576966063940297,13.720078903749823
1160.0,-1.2396930391213457,9.763154872537829,2.6391884193123025,-18.6971372191989,4.03234418591762,24.998385254006447
1180.0,-1.8195316588994883,9.06775360394896,-3.7135164320051177,1.192686386763854,-21.777320159500295,-11.518568346114442
1200.0,4.094040766780222,9.127373117843868,1.3490369192037726,12.132135718016295,27.29101321304948,-27.03500720067275
1220.0,-4.661251937694414,7.281700625584449,-1.520027590957008,-22.82043003196283,-15.095614414292303,6.40428451187908
1240.0,3.4724992576178257,16.301730494512977,1.4593123062210591,31.822340310165732,1.8711893692412724,27.3648813676953
1260.0,-2.0365436648482387,4.497999387532685,2.425553296443519,-37.46399011334094,17.349623258400673,-3.723176922200805
1280.0,1.4219201979408327,12.372245053058844,-5.5099129011109405,34.00603784547171,-24.753205566176675,-28.92548457897067
1300.0,-1.9273838809755457,5.376884210410643,2.336285035211644,-26.956127617249578,14.648513163002562,-3.152928719748345
1320.0,2.5171506637591134,14.854506256867317,1.8411409170869775,19.59881230516811,-0.6971329267927381,30.340867705114363
1340.0,-3.2630056878082945,8.998908857781082,-2.0389623648590605,-5.954879631643935,-18.930193430916717,0.7202419684978381
1360.0,2.386035109061162,7.097432362141857,1.814759153679919,-5.629764100238841,24.97481671173682,-24.341733451034738
1380.0,0.12556464940559106,11.801133676906895,-2.871788858590734,17.44607832332818,-18.665774125714893,-8.82821316407217
1400.0,-3.1913499325391275,8.310935934691846,2.537425428012054,-29.248847265871646,1.5506655586361422,30.235391962595763
1420.0,6.274740960171734,15.754588691814492,3.3338085797623465,30.32003812998319,11.978390169032858,12.22533488652658
1440.0,-7.437307812545493,2.604391150692567,-5.163650748956662,-35.541217264529436,-27.1978280924244,-28.203528614306688
1460.0,6.6281021097374015,13.263680794863667,1.7071375207326935,33.640443471536194,18.16414416586365,-15.743318328308604
1480.0,-3.60134092637095,8.186677128752986,0.7060525261558153,-23.397728388984618,-4.1341606316050745,23.999716771912073
1500.0,-0.08897798642763097,13.746444523135784,-0.6266254124090958,15.348371660275935,-14.86906364821318,21.02916825904386
1520.0,2.485985212895563,7.925603424689942,2.1691500301696083,-0.4598634383611522,26.184228944183438,-18.73115375511547
1540.0,-3.946651255236806,5.965338508282987,-4.435559732454603,-9.105501866017446,-20.474072079375304,-20.386400664453085
1560.0,3.544995825192263,14.514505374785449,2.3190912187161863,23.052936775626403,7.519220310794251,20.701729505493837
1580.0,-2.488040049867051,7.370165676221421,3.3641407950221898,-34.069928828333886,13.77389329151125,23.984398041856345
1600.0,1.5310191322865334,13.444301163398556,-3.920622373843626,35.86032106854239,-27.745283218643074,-14.901216817536332
1620.0,-1.567158027019002,2.7821952357720883,1.3305742837265115,-35.42322361495061,23.69303185223926,-28.21714489070074
1640.0,2.5084411164757716,14.898129195404488,-0.6503447227993465,27.578418400034593,-7.026497066432412,9.263414824696245
1660.0,-3.3745933070016223,9.369985486532144,0.39445631045612506,-22.060489412231878,-10.182607374080511,30.016498278661263
1680.0,3.4491542230326293,10.351391495262408,2.5737629789873506,5.366793057177929,23.543166578761227,-9.62638625040218
1700.0,-1.8821142765014622,8.115919041203648,-4.909704099531004,4.6745488583483095,-20.780162150415418,-34.150220723798256
1720.0,-1.1448376124779416,7.169827575404241,2.002809080364744,-15.689303958432816,12.7217340534345,2.0581033979954975
1740.0,4.6933865210028465,16.17960385438056,2.703456200248268,26.58332920729115,12.478043570471709,28.946623146197766
1760.0,-7.0864819122734595,5.2152600694983295,-2.6978269174958083,-30.839215003161232,-19.161265414325033,1.5268098286797895
1780.0,6.844639348686599,12.394458867358372,1.5685028938009178,37.36305933963083,23.691362353016757,-28.01916573480287
1800.0,-5.548005624266263,4.740594898273638,-2.3130089909796254,-30.00882856163779,-15.066904009590361,-7.826519540879649
1820.0,2.1950544981431417,15.667122899989588,1.2671041876332874,24.745036543021648,-5.451330382068362,25.825061952935624
1840.0,0.6592266829354458,9.006954494194304,3.6566078558767425,-12.11225050012266,21.058967715871198,7.9275403141720195
1860.0,-3.097776188680221,7.6871267877423,-5.072841895309139,-1.1887787482080108,-21.48614552513881,-25.491451453720607
1880.0,3.3875758605927495,10.325622741562482,1.251178753209158,13.879928549697945,11.580774748256276,-10.848717634153473
1900.0,-2.649647941664329,8.471167533530263,2.110107256953097,-23.46002315664279,1.2383126564303426,25.294485088876637
1920.0,1.599120945949473,15.905406540734347,-1.7687860777572373,26.204892390948046,-17.60303434291323,17.73785603437484
1940.0,-1.8743396291890275,3.1520798289385925,1.9392301922886548,-35.36482383536563,27.36085209161403,-20.79509785099092
1960.0,2.752560727176224,12.98398503880996,-4.423078328435373,32.861518171123066,-19.503660086767194,-22.023694297350097
1980.0,-3.8739204986150266,7.624318097354171,0.9247168443146606,-29.505531264962183,-1.0685106266756503,17.688710220608147
2000.0,4.617606000095831,14.22717642125578,4.049470679274591,15.47795976859069,19.659338389855215,24.281398173488185
2020.0,-3.962066408861305,7.385310475081249,-4.82767098944165,-8.024449778021005,-24.67067045841768,-15.244046249340128
2040.0,1.6262440154420663,6.950210078590968,1.0626775870290743,-9.35102149788197,19.512856472247417,-24.481107561477337
2060.0,2.3324144949000924,13.380100529100941,0.35087802567803494,15.259159157124078,-1.6544072844105076,10.235619133184278
2080.0,-5.442501968379296,8.466731691568969,-0.49739197917529576,-28.97507095175908,-17.132672191457395,26.377380755133444
2100.0,7.0886323980509465,13.877557743113233,3.1497446120001253,32.77075244782124,24.00684268260223,-4.501979316364521
2120.0,-6.323011128871322,2.352301743760231,-5.000822431623214,-32.69811694098745,-20.44488696220859,-28.01566196193975
2140.0,4.746320416089606,14.444762590579874,0.47151866523783875,34.83893152604104,7.102972063173863,3.886347209550688
2160.0,-1.5272883440743255,9.104117277969022,3.7450162992668705,-22.078799454996155,12.748059290600064,30.80678319801141
2180.0,-1.3845158706253002,11.465314676602064,-3.715137488539604,14.070382586961935,-24.960245431388127,1.2055367427811334
2200.0,2.826441305194025,7.407965460621043,1.0382244653670818,2.0383019446244055,21.7099725216012,-28.3980405690629
2220.0,-2.286535529772898,7.538816989753107,-1.6217904771587248,-18.487316500619514,-7.061688481277674,-4.132633792420302
2240.0,1.9798996524129588,15.790632402009805,0.32867478580378756,22.037667694916156,-11.57439234762935,29.265678661243598
2260.0,-1.14821690622726,5.975399888538561,4.437250706555285,-34.61588193401171,23.707281461615196,11.15916515198836
2280.0,1.7283831959056788,12.693347957515078,-5.191298766847991,37.66556232134015,-23.491678429532772,-26.333872150095743
2300.0,-3.0236868483492403,4.001842917296646,0.36579346176073557,-32.67363859452118,8.272928664355929,-15.583987872396746
2320.0,4.72332421839231,15.734562189019089,2.8559392574512055,26.26233962665274,8.58019256472839,22.42320202325333
2340.0,-5.042281044108809,8.706847783142516,-1.6240507881982882,-19.586706805615222,-22.277547041240894,14.403245978081168
2360.0,3.534258011266057,8.561519660633705,1.8143241899959455,3.4384316086277904,21.4202854834994,-25.90305552108356
2380.0,-0.17508887251688662,8.994915086855698,-2.7577291070810466,9.354445143517783,-12.863808027747096,-22.081563163176934
2400.0,-3.50095258321988,9.097189210429189,0.6115532721565693,-17.77501739061604,-8.958302849935661,15.951255976881693
2420.0,6.153150088152936,16.051676908150174,4.6573356079074975,31.978442286356795,18.409119667021756,22.581025055976312
2440.0,-7.525725440807378,3.6117408488982194,-4.824729389119375,-36.966764782979176,-25.536290397665457,-20.72082575816094
2460.0,6.099456200022431,12.41851416382738,-0.09067186852008349,35.282681897821625,10.924039047491304,-25.754650616754503
2480.0,-3.1811660533385915,6.609840809719557,1.680795257130705,-31.402739320210287,6.270431190359632,11.622238697153053
2500.0,0.2151981606057657,15.265349857956867,-0.7397399464914092,24.630839242741274,-19.271388434607704,27.306880400470074
2520.0,1.2649160493523823,7.457608452448684,2.9049831266497708,-11.48522198005929,28.030856935249894,-6.589406270407206
2540.0,-2.0788956065498296,7.3488057929328905,-3.9319962327361306,-0.563429419117162,-14.569988783878937,-31.890914331323014
2560.0,1.5873566249945714,12.290554185762861,-0.1572149283200789,15.838830122578528,-3.9285147714124604,6.5377418119183375
2580.0,-1.0812416532440796,8.831206004247683,4.697602309464075,-23.509827931438853,19.67535574389836,31.789864135037956
2600.0,0.8776126690993427,14.313435348819997,-3.6087999176658205,31.06734562508869,-24.936829186015824,0.931581855961119
2620.0,-2.2068125532361,2.624097461923437,0.032201090421452194,-35.92369814777375,16.754260513350975,-31.54040056137263
2640.0,4.214513659418829,14.465263068877986,-0.48300407556254266,37.0520067644223,-0.9234514216664058,-5.492413336928311
2660.0,-5.694738005651298,8.361425580538596,-0.4946091384140158,-29.75969833267527,-17.477664191516944,29.277847603099246
2680.0,5.164263330867183,12.895943170019184,3.6404730101035887,15.704879202648039,25.489044266621633,10.895349967267302
2700.0,-3.0183407096360053,6.768553905194495,-4.371979105475147,-5.005436292839951,-15.948047272022706,-29.184886451458198
2720.0,-1.3345347528882394,7.6648288497119115,-1.0009882870731988,-8.83029333743464,-0.8316699315755787,-13.292946622584331
2740.0,4.040957950738137,14.760517362685967,3.627055636219791,23.08757013622739,14.372719316195928,24.89425406760288
2760.0,-7.139272621325291,7.055850712980528,-1.9694394188415136,-28.68168154368243,-25.87307219140373,14.018759447947096
2780.0,7.053042583853152,12.825846115022033,1.0044945687692561,34.439949618316106,23.239418838544417,-22.830908231017432
2800.0,-4.826838020398818,3.099402620402031,-1.6979672281273888,-39.893711363951994,-2.725971832406878,-21.542441228838513
2820.0,2.030222468300763,15.71036786885846,-0.39340231641970586,32.22022779708261,-14.888987975985598,20.272741433040476
2840.0,0.07044624127258514,8.529753812583074,5.032254873112582,-22.63832580001376,21.868947288011945,21.580636260643704
2860.0,-1.2090759136783111,9.680174179640877,-4.190448262301532,9.10087976963602,-18.866308307965333,-18.765270431789865
2880.0,1.2587800427829607,8.10723253088975,-0.8098202808530804,0.3065833781894667,8.373768028334622,-25.11902996321987
2900.0,-0.7353201311914022,9.136505030548708,2.7241999449880976,-16.112586666393778,10.915559804487076,14.556380945519518
2920.0,0.14533187887904164,15.923494382539356,-1.3488410828344994,27.27553682774823,-23.864468388297873,26.656681019870483
2940.0,-1.4286252384784424,4.041405843235058,2.3348085502095013,-31.955405083155703,18.4511952788066,-14.566440848582873
2960.0,3.6366208762646073,12.578746325776986,-2.8784590026478876,36.032083411253275,-7.372343434647272,-32.4516355699142
2980.0,-5.71203806002306,5.617197643363513,-0.8618190862226083,-30.441976856677506,-11.245904931458318,6.27243112173975
3000.0,6.006739317301746,16.12002192097957,5.475014446859275,24.247800477653435,21.19268800743611,32.05496501989994
3020.0,-5.024095556506889,7.393510562946364,-3.4709696581242735,-13.64800814215497,-24.57294716939837,-3.0416547667423575
3040.0,1.5227820352932708,8.028405144271362,-0.6548282527699654,2.1091909783496243,7.602071605727588,-31.000093391596486
3060.0,2.3348783936968305,11.080056348239943,0.958291905699977,9.316572899649783,10.534929120586742,-0.10846529302475583
3080.0,-5.337027390169302,9.22844759820426,-0.9910152805541883,-23.592426643177586,-24.102720678058212,28.049861467883936
3100.0,6.967177049210582,14.73728053485154,3.835101581651594,28.140538340745273,23.556030951387644,7.112256331231098
3120.0,-5.899503735903443,2.5252738258713214,-4.194396376630859,-35.163040148500606,-15.801719707947866,-29.698337060066578
3140.0,4.0255632041194405,13.615524974129114,-1.589885837144403,36.88383970463588,-2.7813423073181336,-14.050857324359672
3160.0,-1.5367733030596844,7.594250917362194,4.7040086793276465,-24.640286716880595,19.362108978749642,27.25322080165019
3180.0,-0.5759413742087823,13.714849501135392,-2.472810186617756,24.33960483786348,-24.14341122346734,15.16876288002741
3200.0,0.7953206199475411,6.5423479028214295,0.17979258808126106,-5.726278978640369,12.12184931006719,-27.14268535172955
3220.0,-0.09753033978234874,7.746676758566894,-0.6959193499151555,-4.314875801246296,-0.10009258529953868,-16.77010898634113
3240.0,-0.14138330595187903,14.000253995930418,-1.393294119322302,13.722975408174067,-17.77961389230791,29.32366345512319
3260.0,-0.7022162586301046,7.745615410510017,4.926556590341827,-27.64425434620664,26.63309615241178,24.929885180386346
3280.0,2.527472584935606,13.112239035218511,-3.5811045123694725,31.035283921941577,-14.530891712285472,-17.81794943588911
3300.0,-4.447622773819918,2.8333645640493375,-1.5406003218812523,-33.572730043392134,-1.550822456556975,-26.723694783569677
3320.0,6.217210669152469,15.59119895576736,3.5645401025809105,29.98038850174689,18.563611552114658,15.307385903633897
3340.0,-6.120307978512486,8.728931552209996,-1.9600737288428176,-25.656227232493666,-26.50215790027845,25.18365800869791
3360.0,4.131015048007355,10.796216682480956,1.7684521350424816,13.43944422914231,17.91942890508923,-9.81852919763937
3380.0,-0.25902713931420585,7.351442488148298,-1.8506682925572833,-1.7093715805220475,-0.46038266576585074,-27.045077425486486
3400.0,-3.2220429419913112,8.700337594600988,-1.6122580967717388,-11.13677574624769,-14.718813310692143,9.975845247608717
3420.0,5.96921088863326,15.957439407306566,5.320836444866411,26.791066267176877,24.70174645983349,30.898867072059456
3440.0,-6.645692580811665,5.152010646741057,-3.0342616872068637,-33.82397974050818,-23.6507310242678,-2.8966840234792977
3460.0,4.896149388838219,12.276669999580639,-1.510684953881652,34.887261448983104,3.4001680635525733,-31.87301953580526
3480.0,-2.709944176858815,4.681542440311935,1.8950253012224976,-33.9126889673405,16.951188602622203,-1.1280290390554275
3500.0,1.1172109443830762,16.406609470646725,-1.4685071360891113,31.15514603896803,-26.20330057944336,27.65167317209192
3520.0,0.28219471204186275,7.048789708351506,2.9301372242110335,-19.18653581994186,23.516361153552058,6.599919651234096
3540.0,0.06796488688234747,8.723848316147219,-2.7917377289839522,9.373106032290016,-8.370593191052771,-30.04206991877878
3560.0,-0.6384631497939387,9.57384825777765,-1.95658540077601,6.006508251613793,-9.854282942282836,-12.215723964864374
3580.0,0.46454426358241163,9.84367492689791,5.527916309028563,-15.249474994043819,24.459712656086907,26.74912589923476
3600.0,0.7321863217671879,15.149646323030895,-2.2581177491926687,28.098178301588522,-22.54008518759684,9.08999459910322
3620.0,-3.4428132292349893,3.062009203489792,-0.23864548478681552,-36.54579417200993,10.003754858508284,-24.44566934240593
3640.0,5.8218473548380745,13.45098791374404,0.2744443599728763,35.7900283999868,7.306267837734863,-18.936354361869512
3660.0,-6.613480236039477,7.258420788976415,-1.8528183738831296,-33.749604510997116,-20.423157864472792,23.13676174481551
3680.0,6.112848087363036,15.038160040344737,4.568320808031243,22.18474523246705,22.532500690474745,20.87552645563749
3700.0,-3.094853855560432,6.325847302659548,-2.8303925153911815,-15.378490603934194,-8.769824351254783,-18.419892006890297
3720.0,-0.9797261642108012,8.33251487043202,-2.937927632991431,2.1365568184562447,-7.524287281479407,-25.01379923503726
3740.0,3.944762833416671,13.115551359078436,4.221524743725599,8.464555380068525,20.957918616975228,17.041474063896306
3760.0,-5.5077521995720184,8.817386871642237,-1.2236980740274153,-20.2916612950266,-24.576671919176945,24.85542232253215
3780.0,5.376142557765744,13.21337374572682,0.9607595267952055,30.037538237800074,12.16534927533531,-12.646627419913385
3800.0,-3.5917485666870697,1.7998018645977627,-1.1519499309631545,-36.354399342584564,7.310259542802902,-29.024219979923952
3820.0,1.7552490542785688,15.45635599154327,-2.839329411157491,33.9200183358011,-24.102190467299714,7.673601664701894
3840.0,-0.8622714419222444,8.489525094442874,5.851705310942022,-29.0682396245204,23.842278049045373,28.610747721074034
3860.0,0.7316549280362584,12.358418141414866,-2.776953377133004,19.268167051624857,-15.544063507366307,-6.797307227650975
3880.0,-1.3790901493027832,5.958477810187794,-2.205113317018062,-7.020467783408408,-3.6505649662026256,-26.436193791197226
3900.0,1.8518841093573126,9.180584264952795,3.1170980918118305,-7.869613088037896,20.89599019515756,-0.05905302991781669
3920.0,-0.7540230798976579,14.883272012523296,-1.5615709019539863,17.3667852389592,-22.488191246341874,29.454751381702312
3940.0,-1.645217573219366,6.324654200360684,2.574973445253205,-26.956280707698788,18.50875003008537,0.7350610021327606
3960.0,4.435259655851789,12.116894325582292,-1.6649979490376188,32.890655486450925,4.848488478935285,-31.31507510372975
3980.0,-6.1538323015576335,4.393485267282703,-2.8410805266163965,-34.2935284344276,-19.91916209833727,-8.826474868694678
4000.0,6.9362378142233885,16.62381953768916,5.104559606087868,31.549923201590964,22.85514957762814,26.08534243345277
4020.0,-5.251137247906219,7.274937437142136,-1.6154640215990033,-27.139728171385904,-15.335251258872745,12.951635621111967
4040.0,1.71422447075242,9.229199516534143,-1.524343646832314,9.004648111793122,-1.167374907696314,-31.43326155372726
4060.0,2.067756043815643,8.544235128431245,1.016537125876674,-0.8306138318127976,15.095641672703314,-14.039070685266635
4080.0,-5.075004936662709,9.912396846003334,-1.9901171906112796,-9.760248715681529,-27.077805463327998,24.443145962357917
4100.0,5.531697088662129,14.820381322900083,4.062202737013727,25.3099364289203,18.682607504094065,21.586764243617274
4120.0,-4.3412833498399435,3.3899644103071536,-1.9084656334825436,-30.85210835796299,-3.583652733592449,-20.766986526848225
4140.0,2.82403667515256,13.044201654685862,-3.591876133806018,34.89045437050948,-18.0791195318297,-24.257507594513754
4160.0,-1.2178819096194902,6.497664503519795,4.671891057287269,-34.622911080926386,27.554965948725343,18.140494593138687
4180.0,0.8595081090456209,15.846869177922844,-1.0842360374473128,28.07859064570701,-24.897469049833596,20.865650912129595
4200.0,-1.575291016034102,6.093250111303948,-0.1110767008607576,-15.53181748989968,5.205831896351994,-13.869621686351785
4220.0,2.322431246573606,8.194010740996658,-0.135621674251849,6.191671341339809,10.046453944208203,-23.703821266403263
4240.0,-2.078591557439609,11.700086967809577,-2.665952489605473,7.5179298556940815,-22.85453423584075,10.550090125993494
4260.0,0.3404266995377886,9.460569661926119,5.200626370585754,-20.148395718927848,23.52818076401927,28.549705714161792
4280.0,2.5449451282086866,13.2099762468657,-1.7473195787812814,26.298780593924008,-9.817636815376474,-7.6641952542678204
4300.0,-5.861103664575489,2.460640801137848,-3.4188764971776626,-35.40726915451527,-9.449723999648883,-30.451806077904422
4320.0,7.419382747930427,14.74470073858542,3.165870414720373,33.16564590921058,23.167410737868895,-0.3503397521035918
4340.0,-6.617279529419469,7.781856744814464,-0.9042837589570605,-33.17404711183513,-27.81896927325235,27.68891276463526
4360.0,3.8754080100512587,13.606519054406899,1.5414605012780895,25.137850729348457,12.902536486699699,6.500221604994039
4380.0,-0.3042909717706229,5.69863848273959,-1.105516233790634,-11.210407471196561,4.828866344230431,-29.951106416651108
4400.0,-2.9114137070754675,8.997587168337377,-3.3273894378181526,-0.4091477873249466,-22.089727821215348,-7.874643337416242
4420.0,4.991594075738232,14.487709295226017,4.920825665590472,11.760962170410926,26.633331698859433,28.948836351331437
4440.0,-4.859759110019436,6.899218028386962,-1.2388116765550645,-23.358916485572724,-15.073288308677853,10.459730192298128
4460.0,3.299451435078377,11.93222248501994,-2.7334537399813468,32.58003567033913,-5.2963402588429345,-26.446723362232472
4480.0,-1.8216568051319137,3.4556735916446946,1.9688324059465547,-35.396974529664895,17.2074630439814,-13.30468260206914
4500.0,0.8557365844524074,16.758676905808542,-2.178847251363255,35.15646329509078,-24.148578375947473,27.44840933610441
4520.0,-1.930273241883273,7.264209194098133,3.316629709172802,-26.727704114581577,13.39825156825127,17.53332995901493
4540.0,2.7438563344394855,10.438597497859579,-1.2079809484961612,14.525045665987497,4.795367708952115,-21.368948910992074
4560.0,-3.3224516305636573,6.9062638339038305,-4.277884889188323,-1.804365452476644,-21.12932157010617,-19.794340499453195
4580.0,1.8296330752579217,10.256858175700968,4.930432461965814,-11.12811584937392,26.24403753853782,22.265803800018244
4600.0,0.8989196324738591,14.756890760321797,-0.5918639611292291,21.741617302195177,-18.124044103061394,21.4754231295055
4620.0,-3.6522034543160697,4.163459606575667,-1.3417428340264055,-28.99242014185132,-1.6732523811948727,-15.444794636971492
4640.0,6.725260561432566,12.628451125623881,0.6040870009036563,35.11104596576636,20.337311482874103,-24.563235566131254
4660.0,-7.65933617192191,5.971619623824818,-2.684336946103782,-32.275034813333704,-24.40171657681795,12.94453415590419
4680.0,6.1437380737076825,16.49778023454734,4.741361758735325,30.846322147977098,17.211176362882284,31.540716855634173
4700.0,-3.2239296879106356,5.886513493744101,-0.773333623151463,-19.929362634366214,-6.248264309608955,-5.309737835457664
4720.0,-0.3928235072526769,8.765053689092175,-4.154296010235727,13.651201352945703,-15.16586543716793,-26.091607932664513
4740.0,3.333097795596527,10.473262059931175,3.7730638193398844,0.4532702467470324,27.012666824406498,1.4115988440337661
4760.0,-4.512611506351207,10.461228553438922,-0.5637875767462037,-17.5758300761564,-17.57417231411317,29.295876569144543
4780.0,4.102987362234811,13.699625480606288,0.5858647745401374,26.985733434767006,4.1276065108042,1.6132724700841552
4800.0,-2.2546944580305257,3.1837412755142585,0.03422822704032783,-32.96855422419805,12.571142612597427,-30.42656239969235
4820.0,1.2631601801912866,14.25827936477337,-4.040702165743553,33.521634015465416,-24.25692806725305,-3.9931029629239183
4840.0,-1.805997797682964,7.364310874602295,4.70905474165248,-30.51830391022845,18.81198558499476,27.177390859151828
4860.0,2.8917627142729234,14.615389453829948,-0.40159731844524604,27.809350444183806,-6.430436775687601,8.50633350503213
4880.0,-3.573078783153667,5.336019306169651,-3.6039157065542744,-16.145242151694898,-10.852180240284262,-26.0700577169713
4900.0,3.2015655027626857,9.145722730460076,2.530169555951544,4.251323079969939,22.005282871588747,-11.740881741704152
4920.0,-1.3193369950986866,13.303857656173284,-1.6077498956506169,8.428318530757313,-22.22844778136323,29.682299540241793
4940.0,-1.6543331027045975,8.580501827388794,2.2368515709144834,-20.570960274150487,9.89738629905717,19.68963093931273
4960.0,5.011676890418486,12.39680415538516,-0.14652389857794423,31.502250831445064,11.245466398899179,-23.96695246875091
4980.0,-7.409049812167281,3.0801223783873666,-4.602929923008921,-37.606495527208814,-21.596329054209892,-21.656741868562904
5000.0,7.039473485759346,16.717280828549548,4.522978489951945,33.360529853867796,22.845265720878277,22.067805346848292
5020.0,-4.863599595051379,7.666456903879889,0.5078293839668888,-27.41808687138499,-10.7329321014681,21.333806206567015
5040.0,1.9582804325118115,11.502893423232052,-2.0525710590054707,16.7438618881209,-8.68395720224631,-16.944418241534265
5060.0,1.102023355604285,6.186021193925071,1.247912300217769,-9.151981785876625,19.18966682115783,-27.244283640626268
5080.0,-3.355065255685064,10.366628704404567,-2.329042642420003,-1.131265408819984,-25.377799724231487,11.391984249135929
5100.0,3.8850025053592008,14.64650055243214,3.9348559795779923,17.27485445312751,13.35165649846742,27.469330277402022
5120.0,-2.583637036338189,5.722069427285557,0.20826797033816394,-26.082711322041945,6.637984320588675,-10.919604022150793
5140.0,1.8588041403325692,12.05555750570866,-5.190644740386475,35.72783718659848,-17.536366961497627,-30.813346781610047
5160.0,-1.5634788203971823,5.3086572091260305,4.0851474855210075,-36.76897967666186,24.50451140698529,6.233729326007224
5180.0,2.230262743147172,16.705586856852367,-0.169853785939663,33.6937435019459,-12.414836268269235,26.77433223323735
5200.0,-4.0305734866108605,6.128728639564454,-0.7504222890393921,-24.459511087042927,-5.442976058188812,1.6115434260605006
5220.0,4.596669952402223,9.464295214520975,0.5920216276943797,17.80177573132048,18.966410924335985,-33.83398537200081
5240.0,-3.33728180712061,9.198144907302568,-3.9164247652677138,-0.8514444527431289,-24.26090658672032,-0.7972979525495889
5260.0,0.6510697004563251,10.916955850178448,4.222242979750585,-9.401603902514559,15.798223454688278,31.65864525658218
5280.0,3.0185134308668444,13.480810740016345,0.6819825465094956,24.7197338720323,0.5962791042340885,3.325548376121816
5300.0,-6.089406184934847,2.6831940645573313,-4.137519004874171,-28.984265908158132,-17.01023318810666,-25.842065089969665
5320.0,7.4901457554601265,13.690891673665014,2.531119407550536,32.483872551082044,24.70660150351997,-17.325281711316237
5340.0,-6.649606013432603,7.230871687761401,-0.6436296228143858,-34.41495528759995,-16.97284961100481,24.163614169774274
5360.0,3.826913284915409,15.405968941494322,1.1435536314909636,29.86800253576738,2.995383848786073,13.189387422454429
5380.0,-0.5364633534077604,4.887872299688945,0.8610179866307868,-17.8492585052026,14.49085774103555,-22.519512984202304
5400.0,-2.223959353818253,9.224048384738897,-4.757819449154406,7.81898128974582,-26.156628834924383,-18.92456850754919
5420.0,2.6560923456321466,12.403520912228219,4.09323086443838,6.326766730052675,21.017734246981483,23.09973805602745
5440.0,-2.516099237377054,9.335269535041112,1.2380356615066628,-16.141966735893398,-6.455700535156771,21.519216715259663
5460.0,1.823492901611304,11.929105318552505,-3.0058551533690605,26.310951859591352,-14.320123974641433,-17.11901750078956
5480.0,-1.1722286216275875,2.791985131469863,1.4847468248358169,-32.53151528821552,20.969561578638295,-24.404391036688303
5500.0,1.7925450547803183,15.88531264556634,-1.8788830816384963,33.898008937979164,-19.012840232123303,12.978082431898848
5520.0,-3.5864751534853547,7.565399957254434,2.728137622597202,-31.571891630960756,7.114252474036213,27.43207004443702
5540.0,4.995874794274381,12.524460538552141,0.9091941700377885,22.157459609891806,12.470569759561299,-10.36465874504568
5560.0,-4.881457624746161,5.438001057587438,-5.373137729358606,-16.04042070068861,-24.682242924383658,-27.782788537304334
5580.0,2.765193453119297,10.446915203987116,3.362508076059514,1.6652499303726265,21.334000704175626,5.787910552011532
5600.0,0.39694870724445513,13.771028474624005,0.8823305143476631,12.790318840237767,-4.978286671636157,29.336683483856056
5620.0,-3.9839986873599327,6.415521991556645,-1.6162208436151653,-24.71318252429655,-10.51567978448154,-1.1411195065939763
5640.0,6.916928131428217,11.659305964514596,1.3604649138729412,28.553124370475686,23.277889275501355,-30.432015395781104
5660.0,-7.035352829024483,4.4978289728332745,-3.0339552063309863,-33.78885330053053,-25.526338774051823,-5.782543710858531
5680.0,5.6659681747147985,17.107265282938233,3.8212531003342223,32.53697451733258,8.171474297772672,31.107835957039708
5700.0,-2.5004205276136635,6.181673616376916,1.484958695265982,-28.666832469834244,11.502069309776385,7.640364161727581
5720.0,-0.4598462323328143,10.003416464759052,-5.050209088944584,20.162119049341136,-22.465234457144508,-27.12206939817876
5740.0,1.7456194089438035,8.151885563444397,2.7922307772204564,-8.505715074582989,19.04455318442643,-8.49126187558526
5760.0,-2.04827060609022,11.458145534887127,0.13112636602168004,-3.8253372228076232,-11.577327044942423,24.815681216344302
5780.0,1.7475523961804906,13.473929015941167,0.45791877259753666,18.256442684051223,-7.231473672021529,15.965870461863965
5800.0,-1.0828289365572252,3.797959960732087,1.359903599039728,-25.9033768355075,21.945347455576293,-26.947888637392385
5820.0,1.3372472969770413,13.163752854788981,-4.3788999422422465,33.84302228805511,-26.121416316018433,-17.762765507606293
5840.0,-2.856017926048563,6.829100318158901,3.7975460105297882,-32.825020493769934,14.14271706496442,24.708731464684348
5860.0,4.382398130891678,16.208308470651875,1.6471795136628868,29.733060516297154,4.080268327389968,20.082917390867703
5880.0,-5.42414114048446,4.589689007436582,-3.920366113325146,-22.70698978554872,-16.579845169368312,-16.483126437692533
5900.0,4.781594337336458,10.191578432625217,1.9732414863913346,8.794984408502813,26.396209703652087,-22.69690950949666
5920.0,-1.7997643218720092,11.24074020881533,-1.4161735112045095,3.3170854612670633,-16.958674149199094,17.408608545218073
5940.0,-1.6352272509617756,10.217668868126973,1.5616481884204072,-14.359299486808636,-2.4875395679333465,25.327932334583938
5960.0,5.291740028784085,11.831319820843555,1.6932549505694596,22.417520707472484,20.48230365309127,-6.959024331243161
5980.0,-7.093189825209055,3.2183951685738643,-5.25503382842214,-30.91408498550382,-22.2909121864872,-30.549274553240963
6000.0,6.6074593616850965,15.70766026319923,3.340150560957105,38.00217638016935,18.35711785886412,7.741579820186042
6020.0,-4.101068552144881,7.127330967261841,1.8276407422474923,-33.969106316879596,-0.7451724727762383,28.07953999862103
6040.0,1.727638614706481,13.352852813658105,-2.5411385267561073,29.88442465306457,-16.60041541987092,-5.081722464779619
6060.0,0.4788048408816123,4.729678154077314,1.3831548904597313,-13.124410501566171,25.889397372967547,-29.200272985991706
6080.0,-1.557614879581234,10.495316297641182,-3.0431286894060796,4.7292126958751775,-19.371736076007487,0.5330938388174131
6100.0,1.1923716740558983,13.330740512522102,2.623858049386189,6.546329917508767,3.913390588119092,30.411614165593953
6120.0,-0.5057452041706035,7.708548264822992,2.4006187482568775,-19.102964848206163,14.137882536449109,5.623085885669141
6140.0,1.0858436508738318,11.245697768935644,-5.23641850453914,27.438290992460526,-21.3408489467943,-28.151479541517414
6160.0,-1.7151378533912862,4.4657822749507705,2.2223455209095815,-33.672034472816975,25.845395867064184,-8.074926032772332
6180.0,4.111854617621068,16.722895658634517,0.7707190915846365,36.418324661991974,-2.968983892627507,24.609897427524185
6200.0,-5.660687498584344,6.318417271283598,-1.1308925479057705,-31.232449948010085,-14.190581602663888,15.693050102168637
6220.0,5.946356440891056,10.96970334827656,1.266960311678462,24.80943226781116,25.314453328826062,-26.81785356549479
6240.0,-4.4386157919933416,6.852376205343143,-4.221920167950736,-15.911467734016284,-20.91021282900934,-15.36098363211949
6260.0,1.1994386716692926,11.684594467958988,2.902205765164177,1.2950210929032833,10.864103993144393,24.528383697647687
6280.0,2.7434796888081965,13.260092485047412,2.535574734125891,16.0213124437131,10.578239345628715,18.936466493752377
6300.0,-6.004427450552541,4.34644200763609,-4.708863687446419,-24.336182949738323,-21.886840885619723,-25.611104750221802
6320.0,6.696798548911608,12.359141786544093,1.7146978248991924,34.71489910056065,24.319787951616213,-24.868652333485468
6340.0,-5.773925766092498,6.308779318085513,-0.2974049868023447,-35.19621853268861,-10.049734695940353,18.714971821851123
6360.0,3.1542362914893305,16.776105242732925,0.4651324974953112,36.23145307466482,-9.46916423616755,23.718271819031017
6380.0,-0.8265713436834372,5.047448604036502,2.2088555077987335,-25.696173251567288,16.70515386912285,-11.798694187779992
6400.0,-0.6054935968087256,9.750569822954803,-5.280265265237505,21.033466720625416,-25.614685984077028,-23.51604724356674
6420.0,0.850028957610844,9.707741448427555,2.808402178173802,-5.0718054441488825,7.19159141298006,9.916413580855181
6440.0,-0.3819129795578152,11.02734608527077,2.6016495851427868,-9.018338184991048,6.566848252986804,29.729157447087637
6460.0,0.3225073454834595,12.176191556048751,-2.9139682959592745,18.18365016029803,-19.691916818309295,-3.324772575986497
6480.0,-1.056280903711119,3.1194836333600504,1.345442997102623,-25.991585360718933,27.403033435782326,-28.765916949029418
6500.0,3.007868962012785,14.54735394061521,-1.7031383103594135,32.21349022265737,-15.332461482093304,2.204789078906079
6520.0,-5.232690278432862,7.555509212190187,1.414743891088321,-33.96858312404877,-4.798293335830067,30.0119170467058
6540.0,6.273724932407252,14.420122103196341,3.286062887206764,30.559443774199654,19.241923343283368,4.256012641428835
6560.0,-5.524368753350959,4.471623417098057,-5.186621076300106,-21.16842785666001,-26.61226729019397,-29.950106818888536
6580.0,3.380222071680267,10.359604537236056,1.9698295400306243,11.168813000032985,16.76613722463175,-7.634883158639002
6600.0,0.3432101194689328,12.295344524745197,2.410280699163059,2.8958095384500036,3.6301356594836394,29.43600258759578
6620.0,-3.867484908824371,8.859523461126443,-1.6263116648732638,-16.066949867333598,-16.08136208458473,11.403129074223472
6640.0,5.857743683457619,11.024535620235685,1.9156836039367133,26.40985364307464,26.207836187392992,-25.660887651014303
6660.0,-6.125636361976765,3.8674077386665906,-3.49962727829982,-30.69223824548527,-16.634377250871353,-17.35722902664248
6680.0,4.888339388726658,16.563324825200286,1.6927130334336609,33.290988452740045,2.205096005946567,22.216397695240204
6700.0,-2.137035259994996,6.979790922584323,3.837046565015994,-32.920066575047734,15.16464167122445,19.740471085377155
6720.0,0.1750196468924884,11.95243739639907,-4.847898738781091,25.242327495157312,-26.586070540001792,-21.58023102206571
6740.0,0.4908917143118821,5.67315772750707,1.0558423934165229,-17.045580759742016,19.80031148477418,-19.464583467872117
6760.0,0.38453165043763143,12.207781835692515,0.8859548566115789,2.6337811139572516,-0.22632731256480332,18.180552969678754
6780.0,-0.46080267407970854,13.194527150238217,-0.42740703818230524,10.834567830346755,-14.87453435665689,23.35829003945511
6800.0,0.4022178519027369,5.488722290832612,3.139281225613379,-16.34954414629624,28.433610345575502,-15.974006456823746
6820.0,1.2089809349134988,11.677352446595295,-4.6146543589607045,32.445281756301256,-17.72503212165897,-25.43632903146709
6840.0,-3.3994717760033195,5.7106734267670625,1.7509806850956529,-34.029472558922585,6.517502299032652,11.908601202271116
6860.0,5.99592598298288,16.84320005223475,3.9912656710375263,36.6390779470594,12.989974862175057,30.92831167984907
6880.0,-6.804970658431684,4.848249667662151,-3.93736706101099,-29.470873926499255,-22.58057085131389,-8.784624727970424
6900.0,5.248631862647909,10.307061336876973,1.0661255818067739,23.571780767148894,22.984468313910163,-28.621439265334633
6920.0,-2.286365153846218,8.771242256730257,-0.9872073129415725,-12.16891567912662,-7.174238862973712,-1.2533704561817904
6940.0,-1.7222231028061719,11.879206541870273,0.4494973546753862,-3.14354226003613,-8.454130306676316,33.02415587141678
6960.0,4.819140730967872,12.13633619493052,3.3943766355173532,14.439413885186957,24.10681421488808,2.397284081649362
6980.0,-6.26664222069737,4.027727467292795,-5.164755900466301,-23.860308754559483,-24.36531863946793,-25.59494242202853
7000.0,5.7252704528590925,13.931815279125576,0.9297588590843793,32.40670074742573,8.722742890086469,-4.658463295206056
7020.0,-3.3603037337202646,7.229397169826128,2.6205089261480987,-36.55184655397099,11.208802595882949,27.341078600824822
7040.0,1.386027638957422,14.981739490137052,-2.75331052937117,33.24418410375032,-23.03623576175741,9.54010955493252
7060.0,-0.40678116601192393,3.7661996895320975,1.5269463589419683,-24.397158845049223,22.51367799530586,-26.183544357309845
7080.0,0.5490154350563137,10.566451655278444,-2.4059363902692503,17.794628840412813,-10.344894690505527,-19.648607109984354
7100.0,-1.3105439146558742,11.59819604231903,0.982477348027724,-3.497971667432855,-3.2760576049552395,21.955236675588473
7120.0,1.1045496773199877,9.84463299531951,4.10780431702412,-14.65990417182326,20.0205374872115,17.91753336704393
7140.0,-0.20761136763421384,10.950475820895738,-4.994166489237065,20.58551880902449,-24.840374216439923,-19.770564386332588
7160.0,-1.9557785749696985,3.4163181920680157,0.6035145407753352,-29.478508339571352,12.41745000499821,-23.46148192617745
7180.0,5.2232511566069055,16.116371375764952,1.8860125451224343,38.04532117764113,2.6509642880356434,19.99901539687834
7200.0,-7.1332142338947895,6.916067071518587,-1.1516217332686944,-34.92920106382347,-21.05937155048879,27.58510990227938
7220.0,6.8866999648008305,12.607770394311963,2.707029491864559,27.514127195740908,23.528772966357224,-19.503570037500772
7240.0,-4.531366517132219,4.660284046589226,-3.907420571961613,-18.772912316395477,-17.50363422294672,-25.27504307260933
7260.0,0.9107534614622317,11.935398490287488,0.6484855092314038,6.23115879308477,2.9823419122379695,11.338294619637814
7280.0,2.976161138570133,12.8849691355142,4.136916388940088,4.744159583846696,18.343044468809108,29.328436003486416
7300.0,-5.235278100345419,6.975732411032285,-4.025490371318344,-12.310580981401866,-27.056718049676267,-7.629993440730395
7320.0,5.512664408811773,11.482253244595137,0.7388540699774149,27.9167877534114,14.819222456826823,-27.616293601059603
7340.0,-4.4019754322682685,5.448439661550747,0.16681134353170518,-31.556376966962965,0.6414127874808147,2.9682449643257924
7360.0,2.6357152148122194,17.118674288029926,-0.30960169336482013,34.2097437507309,-17.380465995891644,28.38821069317447
7380.0,-1.3704486323145892,5.365214228404392,3.5792736388657813,-34.38236284105062,26.902482883955592,-2.82923716977624
7400.0,0.9670476917345128,10.90136127877525,-4.485455578436554,26.071742482440087,-19.87351700744877,-28.181305081224117
7420.0,-1.4762750601910164,7.5296066805400725,0.25975799377865805,-18.729381356232526,2.022718258097389,-5.58865085048098
7440.0,2.009579928503915,12.533155603539255,4.4322470405463825,0.6181822919145294,14.095761958961997,33.425417123113505
7460.0,-1.7793168089270086,11.791155721739319,-2.8144879958384776,15.320697769144946,-24.054774057557598,9.347356606130768
7480.0,-0.33053447234945865,4.029360365895962,1.198028114026667,-25.584349897094185,21.515678450061543,-26.52978869458413
7500.0,2.9417586748977316,13.256675854596974,-1.6520423415378838,31.489841008219024,-3.6550388776069274,-13.301809098453884
7520.0,-6.23969835103108,7.362950052108722,0.2710235588359224,-33.47899591532844,-13.973666925745768,27.272071646516178
7540.0,7.338230850557394,16.252748182424096,4.628636076765763,34.78425899495337,26.098962609679603,14.277225814233375
7560.0,-5.860940928616839,4.065504809258408,-4.660477471167851,-30.616036938685593,-22.28091990028166,-20.508836951813848
7580.0,3.1135002973699226,10.977552366379488,-0.20986024922211888,22.10139526541272,9.002838734495171,-19.793406091859705
7600.0,0.6346407751462565,10.512102744832681,2.7003528713326643,-8.64173229827509,11.99901864301913,19.18428280055288
7620.0,-3.6198167687395157,10.978954946130319,-2.03670247380073,-4.976925068683801,-23.39854575079088,24.61217474923444
7640.0,5.143125117933394,10.558840080492972,1.9279804972851524,15.760225601584837,21.427021297626382,-16.918619021778717
7660.0,-4.720724857545294,3.526126466380356,-3.0286944540795364,-27.876981795712023,-11.006614632942078,-28.48105990734436
7680.0,3.476374604884547,15.6680265136592,-0.49790794686188744,34.21516271451846,-9.566293476650122,17.35514758415718
7700.0,-1.9281186766155303,7.280223795608189,5.1096530856830915,-37.46171593437923,21.248586978741645,29.15866366831386
7720.0,1.5344773921184514,13.570727611581017,-3.8471978714801525,28.81813929519884,-25.938856305701954,-8.192375683188738
7740.0,-1.9630995873183603,3.8493296065822857,-0.15046516479222358,-24.951814448340254,10.662513945111519,-28.54653871359733
7760.0,2.79475984693161,12.168095617858706,1.2269053849181928,14.642096519197064,3.936328067636282,3.606865486853857
7780.0,-2.5321503222749815,12.15607536525559,-0.6295920243085178,-4.415275032059808,-25.737330284371268,30.59542637738848
7800.0,1.6475043759807526,8.20263571167868,3.3845947247131707,-11.997485320851197,21.261335203733637,0.09544270962759893
7820.0,1.3534511893961558,10.651951048797898,-3.905771950564906,21.480710452385253,-13.328263708787722,-31.831792317969803
7840.0,-4.619658239559757,4.805808231032164,-0.6934650043750021,-29.200919504054813,-0.13972507253848399,-3.5070675723759743
7860.0,7.0529914067381885,17.216327725436383,4.827548174368139,30.63889075708697,17.90444634419682,26.828240232001708
7880.0,-7.66533218740999,5.623187235438328,-3.057398339133398,-31.022341525041814,-22.836993236553056,5.258763110385521
7900.0,5.582456204650348,11.67453418491856,-0.0003800593162593957,29.389895072726873,15.984211288576232,-29.334601487958306
7920.0,-2.1576452948855294,6.393532528407646,-0.2842880970293451,-20.448504998242925,0.9487866724645231,-13.811937701567748
7940.0,-1.4462573074614389,12.758890877596519,-0.7057604085374499,8.454019737300088,-17.768215621765588,23.078312290381316
7960.0,3.86254197725076,11.851888337098156,4.636713358024581,5.497061238408222,24.42738633694107,14.749774499565426
7980.0,-4.408453052293858,5.513980856418574,-3.9610513943141803,-17.19747948023061,-15.654140782915533,-27.00234965890139
8000.0,3.306196420375629,12.323184453478738,-0.8175433776872316,30.777338019803057,0.048290509869495735,-16.74323075725973
8020.0,-2.2545921609709403,6.819222869228948,3.8942543792033133,-30.112445712558067,12.385758590087416,23.618559110631534
8040.0,1.3709321420842764,16.545198599970025,-2.1285724973103806,32.53264453662526,-27.36213285003899,20.643795905717468
8060.0,-1.6098044249355412,3.551772960999378,1.5870325661973572,-27.496524455860794,16.329368072951905,-17.338438351414933
8080.0,2.8102085331166364,11.113633852026966,-1.895534454803275,23.458786261801116,-2.1974230644051604,-24.413735755711176
8100.0,-3.4180868892444,9.234648994139839,-1.0135364473601938,-10.139124957712395,-15.615354394461864,17.070248043420456
8120.0,2.9472546173467316,11.8801903165619,5.372718729657647,-1.4430063938707378,24.54936646703393,26.172680385702588
8140.0,-1.1093181649523762,10.877827614135526,-3.830098035053189,10.544282080636304,-16.54363505285071,-10.505774224718476
8160.0,-2.0811887915333163,3.9592772012294564,-0.9041832338746538,-25.40834108262646,6.862132731991458,-31.354416441699534
8180.0,5.450743521416798,15.450183076334135,2.678011965472977,32.54595045248391,14.1138550931726,7.347115700164058
8200.0,-7.432423818470413,7.5799239960545535,-1.6991799474983198,-39.046364918355806,-26.02751157327001,30.60191797431116
8220.0,7.208581066140851,14.206267427101983,2.633028127189537,31.095128047626783,21.94118487739609,0.3102527266355919
8240.0,-4.553217351518318,3.46776438908806,-3.0031246615006317,-26.058800322088388,-6.655515063009787,-34.323976977441376
8260.0,1.1455519362192494,12.198441566707961,-1.6647825052647127,21.916268939733328,-9.118263618361333,-0.8780985429452558
8280.0,2.0683074065987417,11.519476704292282,5.164783780183693,-7.164127084268771,25.394202852062165,28.378374297998477
8300.0,-4.013427414622104,9.010617658330299,-2.661412365494081,-7.281675781878461,-22.576883532941192,7.868981450909776
8320.0,3.5826925410934076,10.154492694928672,-0.48624611085667224,21.474737064542985,8.23826514297965,-29.82415697720119
8340.0,-2.2741685693305875,4.8282795371797285,0.5689012774030616,-27.751045704421845,8.989287127008035,-13.42915654922968
8360.0,1.59297980434791,16.64814088983987,-1.2787387295114434,34.014078047826146,-23.455795545311837,28.69189758388072
8380.0,-1.7582517178649149,5.787888312484978,4.362715559411822,-34.15847651345198,23.907760274241443,15.96993314646317
8400.0,2.324323565234655,11.930011491524319,-3.2088471539241055,32.870780426455354,-10.455033591136292,-25.53378728538135
8420.0,-3.521636421616022,5.167601756890559,-2.354274231558992,-18.68276747787506,-5.197399160958994,-16.217905577030034
8440.0,4.2912632644377435,13.310492214900073,4.452677367082126,8.141006219183428,17.903755239513938,22.981158771170612
8460.0,-2.870206059297692,11.709522004756083,-2.6013399926367744,3.7728451915901466,-26.437792548057693,24.681935184060567
8480.0,-0.02178214201980591,6.484272169445624,0.4966247348357795,-13.324508104467725,13.802487654754328,-18.876670868088137
8500.0,4.002356915358013,11.091827574943425,-0.6213460932971286,26.397407621271515,6.749924097270576,-23.644723577845465
8520.0,-6.145491600326109,6.396170500543968,-1.8808528109943468,-32.86943486594462,-19.104560574094947,16.95386716041719
8540.0,7.235763248657822,17.010744889974333,5.449173435293044,34.28669556912793,24.31764794651408,25.89100826772186
8560.0,-5.790069454327639,4.143271196951178,-2.9868413519709414,-31.373247835693352,-14.83802257092723,-9.607313151893681
8580.0,2.8930680005243454,11.364647527314299,-2.2546771007015796,27.627761895147913,-4.159431041643858,-26.908903519497578
8600.0,-0.031729867621636904,8.327284573201213,2.9797775608481847,-16.144597577594734,18.91004862433009,5.910959374049048
8620.0,-2.381069836755689,12.846532872617667,-1.6472639893425023,6.572934820778657,-19.639478529668327,26.559078714591955
8640.0,3.2915924734317454,10.836436003471222,2.2754357649793038,13.097639574113806,18.04824323594798,-2.4144428136708074
8660.0,-2.3938979616603593,4.0962118056007775,-1.8344535075041268,-18.51510826379265,0.34354388759348753,-32.40566697140853
8680.0,2.0102169843364885,14.250908577939716,-2.454089830068843,27.884101932712607,-20.77480736915155,-0.04810589155306194
8700.0,-1.8101757857044993,7.273046717908379,5.400045902393225,-37.647750104465516,29.429574070939015,29.201727823629383
8720.0,2.1408949865125213,15.268270769152801,-2.0386954423151913,33.54906765078632,-19.6361491193216,4.3954161206729365
8740.0,-3.508700127995855,2.9705804361175727,-1.72401955279159,-26.686918693890327,1.2853113827863203,-28.993651743373096
8760.0,4.782966937025481,12.127595354938508,1.5919263652961961,22.77188289938626,15.25754584539512,-8.750613509579352
8780.0,-4.067179006379076,10.703642468038487,-1.3800306356679641,-12.8085127375885,-23.230244294557195,25.243991183024647
8800.0,2.12966413086367,10.710451042521917,3.2973823846764403,-1.7570242480784979,18.233894355336453,12.096803715859249
8820.0,1.480797397638255,9.612602562648972,-2.3634336743347566,12.757554174271824,-4.233190532866651,-24.690491651182533
8840.0,-4.688612595493741,4.644190630678832,-3.2124846701798226,-24.790265598194548,-11.146768988897529,-19.518865289891043
8860.0,7.208877828850948,16.621992835016588,4.99549454168599,36.94662745695022,26.007486055791304,20.187829956263307
8880.0,-7.194551262402226,6.4637870550745244,-1.7393848903891795,-34.84777727502737,-20.748584553530822,20.289979314270763
8900.0,4.995014842301764,12.744982039128308,-0.47133265784008016,28.220698701173582,6.905264229310144,-17.922411467103416
8920.0,-2.211351499955365,4.37465611247049,-0.10714741266089031,-22.436032830446127,11.142738733022734,-23.79221450803123
8940.0,-0.6880026710111173,13.317635845780103,-2.028972314110683,15.472238987294068,-24.395872461231416,17.177917949979832
8960.0,2.4115848948365675,11.398947104124609,5.057252567468042,-5.819323906798705,24.467779207546386,22.928568115108646
8980.0,-2.254656461300922,7.312868605615059,-2.5053431061469755,-8.901538169396957,-9.846724139591371,-14.388925349446334
9000.0,1.28008205849529,10.34940416155088,-3.0895348654869745,22.09776656418222,-9.049257486300132,-24.81534174735714
9020.0,-0.921856631968405,6.2693203440430905,3.9789631743988196,-31.35214215496064,17.4311812399554,10.774832824799404
9040.0,1.370004991290996,16.997949488242586,-1.4236497994935327,37.19009143571103,-27.333050418046472,28.258031609758397
9060.0,-3.167022015863781,4.269619650590311,1.2087157969563926,-32.82362597590381,10.800827571013762,-6.445203213726304
9080.0,4.842025742867042,11.413505320551042,-0.9681477465423926,25.6350320036175,0.744397685166688,-32.22227324467998
9100.0,-5.071924476884275,7.031778845374211,-2.6568573231010295,-23.72684729911095,-23.481845402225034,2.069682830510012
9120.0,4.080762479816319,13.733974993030811,5.081704074071332,8.508781761849622,28.108307970551053,31.162507346554808
9140.0,-1.2353077861839037,10.621564350658204,-1.5207531750411807,2.5680741149334176,-14.19445501175439,3.9866001285240653
9160.0,-2.6920881771252683,5.13116136221122,-2.5699672298959833,-18.517443903427242,-4.05126856108797,-31.241041383770995
9180.0,5.897899053342092,12.734245351459705,2.1921687125846345,24.37815993922736,19.07161639612174,-6.397832937909925
9200.0,-7.278097241315348,7.5287703276914195,-1.2573877135652598,-29.808838176547525,-22.35519597382191,25.93579202921694
9220.0,6.066401005042644,15.735044504646599,2.645277481275765,33.118415954292786,14.379799518505859,9.161256585679665
9240.0,-3.834198232074063,3.1769576624299263,-1.2709907148741812,-32.75131460110551,1.8178651168536195,-25.27313319869684
9260.0,1.2314781652856275,12.183113089281933,-3.8782633017269363,21.86289438650052,-19.917995152431413,-16.096357319122333
9280.0,0.9816103365568237,9.906461289548934,5.275845759588315,-16.038642653167244,25.390384838726362,29.340618257475512
9300.0,-1.637484537934116,11.870493837190935,-1.139730708180706,2.9562375790517192,-18.469814817655347,20.31301124759023
9320.0,1.5169054289876853,9.452874353466457,-1.3203185633189938,12.18627524372946,-1.6704745998898056,-21.03901875617777
9340.0,-0.9975502220936581,4.86613258032274,0.6965543199644579,-22.953272772022846,17.915313986712135,-24.391383372337348
9360.0,0.7609117487212582,16.101577581224472,-1.7566414541948867,32.38754566600864,-24.498598512867154,19.095856543720643
9380.0,-2.41343428446843,6.9033701337148,4.237402724210126,-36.01859240119128,19.733944220663947,19.548727318873375
9400.0,4.310686269959705,13.828179426048326,-1.4860494479560475,34.16350210288486,-0.15684756664472088,-15.09742412353162
9420.0,-5.582523486716783,3.969850965440621,-4.099189559439893,-28.244668546445823,-15.072879159523204,-25.2493777855824
9440.0,5.72021394443753,13.022701374996101,4.012112914482699,21.38426137708776,26.45981499430293,10.386714540287533
9460.0,-3.364271205866206,10.782559731932231,-0.9968845673706815,-6.482334413346344,-19.05606584153995,29.510847592814066
9480.0,-0.11493600615882081,8.599094953056975,-0.18024589066846025,-5.856352994230592,3.198123160532972,-7.690618059944232
9500.0,3.928231451342207,10.072226202649881,0.1024709054332125,16.297535792020653,12.752734003134524,-31.35733240394303
9520.0,-6.257365186102033,5.941659788822258,-3.568854879353533,-25.490137075178648,-25.991827100242396,4.316413846257862
9540.0,6.659792363953304,16.765178139309,5.223244518896491,33.6445687400772,18.271822071435185,29.585512902534575
9560.0,-5.229455421457007,5.096925884246,-0.9441730315282497,-36.77493833620459,-4.869751988016155,3.769307171470486
9580.0,2.730987000864219,11.922315056587536,-3.7030300599495227,30.319997052078108,-11.490948650472014,-32.101090446259256
9600.0,-0.2791474187657756,5.809900506823594,3.0327726383580282,-25.222076852286126,28.467352570159292,-9.8379769900532
9620.0,-0.9747462318779803,14.226137808985849,-1.0712551184219168,14.951141368536444,-19.24351343478202,28.252888035918804
9640.0,0.7965838672535634,10.408910396108181,1.7756765416793099,-0.6799496388947418,14.203998391700082,10.45210121531774
9660.0,-0.026028583976463904,5.8588228226255845,-0.47534246860996743,-8.874339891590981,11.095270055903061,-25.5666936954382
9680.0,0.5210821745308587,11.557971004718533,-4.1747497991847276,21.446429688566774,-26.20506590124855,-16.67841299642959
9700.0,-1.102183956984776,7.36791250631328,4.555460625159293,-31.317942016455294,24.946310099280886,23.375951485184242
9720.0,2.9441423201256973,16.436533367181152,-0.5030561159134516,37.67424505541523,-8.608811661302711,21.585114301385758
9740.0,-5.253698466032642,3.026397900697447,-2.555195593425746,-30.688125316074654,-6.706481507038379,-22.656362592713116
9760.0,6.2243390112590635,11.868872097099544,1.5014736456738669,28.52836855081661,18.43954410445003,-21.87018354786862
9780.0,-5.552103751638003,8.928871431388844,-2.219853867441416,-23.493613655694496,-24.475800123553345,16.46444315651597
9800.0,2.1832589263473263,12.923037931786833,3.604730507037671,5.188479256434811,10.920707527209071,24.605716322227263
9820.0,1.173842388911616,9.562859766589645,-0.10757190182539283,4.670905872128296,9.120470523429528,-14.17938233687497
9840.0,-4.665690482493999,4.986384348206522,-4.754961741454519,-18.45875144047956,-20.299406686781015,-27.64450137047542
9860.0,6.718145399505766,14.801026026219706,4.583070849295828,28.149325852573448,26.552209934904248,9.397729274557095
9880.0,-6.131761510382647,7.19067888625046,-0.6393995213797519,-32.42640351153489,-11.971573376337002,29.98360106839775
9900.0,4.4178269272553985,13.899988970540363,-1.4011491745018028,34.951406088723765,-3.0249548768409475,-7.34292287860714
9920.0,-2.082148299952713,2.9701917882307978,0.8344459637316497,-27.94788855538883,18.765726395802258,-29.20385440395125
9940.0,-0.38274355720131875,13.703685049391996,-3.1254215442158335,21.267454015327655,-26.593204978836898,5.228409606816372
9960.0,0.48536958234884864,10.310147948923984,4.138031423633947,-9.900078826991958,18.500697519215567,30.15277715473131
9980.0,-0.07098395190757935,9.834252114658055,0.21741754803529026,-0.5751338958983913,-1.6879603307341284,1.7117237251372988
