timestamp,ax,ay,az,gx,gy,gz
0.0,-0.222586707795825,9.871330035737376,0.09138172457760911,3.906389191470286,1.028405281011849,-2.4587024746230557
20.0,-0.34120931315509273,9.308344829500127,-4.5121768864894785,12.503106073001165,-17.684807153107638,-29.6504598160535
40.0,0.2704785464884309,5.95551835655692,3.1853726445745854,-22.55521355683053,25.890551770662537,-2.9734643967853644
60.0,1.9435897139808231,16.614556282338086,-0.7170065823218134,30.81344672463723,-19.047185410702916,30.376409956448107
80.0,-4.128584529647044,5.822779665381909,1.0362215933321348,-34.11694586114538,4.016390691121407,9.010921629508506
100.0,6.233826344327607,12.524208112811994,0.23530942700871738,35.11588218372113,16.842958613978738,-28.20863908608507
120.0,-7.190326348815672,4.653543122324697,-4.468804407300494,-27.25881397244924,-22.230091193186116,-10.552626288408883
140.0,4.5966208199919665,14.358147741301588,4.627603072437992,12.447625162801444,21.184441364721167,29.358050596708818
160.0,-1.312831348465109,10.220139329804034,0.5500604685372384,-5.618240488328308,-2.6588452703830745,15.8652415312009
180.0,-2.3293884229615123,6.6452419718276765,-3.3230589761717653,-5.537817221362159,-15.064068683079475,-23.89226249206827
200.0,5.029324595169106,10.608560077085814,1.889905907548686,19.530116825278473,22.565927455107616,-19.16829892107886
220.0,-5.86377358922087,7.279431921330169,-1.6273378023955534,-29.187484343788213,-19.64627672703856,19.7997622980551
240.0,5.495659695340415,16.50940796726238,2.6599097109402976,32.27950140943563,8.160351112199956,24.295001972582167
260.0,-3.0081772033710683,3.1817309085628342,0.2576317280330219,-34.39282615064231,9.643425688187525,-18.635001883678424
280.0,0.9654920085618103,12.046127538967998,-5.032889529442681,32.36462559315346,-20.56032895121802,-25.18265839579679
300.0,-0.09537911668808605,7.585010597038236,3.9701802588688504,-21.142243813313367,22.141535278840298,17.515008547518043
320.0,0.5428963928801116,14.020268402879244,0.5509732266439422,14.829134789370064,-7.642061391003195,28.860731980430284
340.0,-1.3121030447981905,9.169475998574956,-2.2512818523010374,1.8961995760438584,-8.18150600413655,-13.533737844105026
360.0,1.0877068177442017,5.656531500066075,1.0885003577807244,-13.96754226988498,23.272165497981057,-27.15655172936135
380.0,0.19795568943200575,13.830712216240016,-2.9022406061267683,24.13198073483163,-21.609456527535215,7.642054760210616
400.0,-2.981366259932981,7.495751655123281,3.651363991473504,-29.433030972174127,11.596633771287005,32.78307893625789
420.0,5.829798009685548,14.469887118235583,1.0116782174436916,34.733416617981725,11.84165277744382,1.617970924141753
440.0,-7.039331858155768,2.872469366575348,-4.990525569644983,-31.220952620340984,-22.92357368767708,-25.700953187044355
460.0,6.324839756966947,13.672013344039147,3.0463518747950395,26.17709870147923,26.43698985320982,-2.156483941922559
480.0,-3.7938402418132533,9.53197351005104,0.013605895622724087,-15.79294231880734,-14.459774424966263,29.41431952894904
500.0,0.17187214417759197,10.95430631820758,-0.26307533270505906,3.988496766736737,-6.082204533150034,5.876944914580029
520.0,3.4460418717356487,8.833753195881483,1.0537520399473834,6.873013987920894,16.40766862804501,-28.960648860617898
540.0,-5.699216732331063,6.194147909691964,-4.331541094622522,-21.22573622267825,-26.928143619094097,-9.629606723478027
560.0,5.5672925063038425,16.3612154897111,4.196415396937999,28.548836385287316,12.936202347655994,28.15966003963751
580.0,-3.8226385410268633,6.2757875688935885,1.2044313552593184,-32.57162815205114,2.4532678164790798,13.646867438895462
600.0,2.2728505987928105,12.582308131393381,-4.099845028111648,32.29251847341229,-16.45202484274121,-22.862067837391592
620.0,-0.5401549643486403,4.123682599239729,2.1723789795720427,-34.688574172874894,21.860576549749638,-23.418628320134747
640.0,0.6831086588063818,15.215593022309674,-0.8966728853867114,24.63960829437935,-16.599588697435088,21.76419691239197
660.0,-1.0906250392253385,10.035875479922929,1.442650254940865,-8.76478893735112,-0.3580498983255975,20.995359541334526
680.0,1.855015007408004,7.991089626357615,1.2659593854508768,-0.4243223088803447,16.30879992275463,-17.27566272731894
700.0,-1.1561251295391177,9.538741287954348,-5.095461824464358,14.537513453550217,-20.311294226235475,-24.621029914542564
720.0,-0.9015802930990304,7.379842674387055,3.7321574836059095,-24.075443572044417,20.70311353721886,16.34712954969966
740.0,3.900552368571039,16.577534996510312,1.653356428040044,32.008081948086776,-0.11052141508538771,26.72075166509871
760.0,-6.62183194557695,3.5736461282800134,-2.8619876865861746,-33.580744322386444,-12.61857849629832,-11.548632232533517
780.0,7.112237721023208,11.963275992522396,1.168104114025543,31.371723085854654,25.35140397857699,-27.32149660918697
800.0,-5.52881632543261,6.6894229655648125,-2.534853204388966,-24.56266105937546,-16.462759468611253,6.452855731236278
820.0,2.8458159672975114,14.230104513439299,2.497378187296233,14.891220343898562,3.9062586339099727,32.25309061602394
840.0,1.2128043564633335,8.729221119581418,1.7351654287747782,-7.374534449337512,13.68687898002163,-3.7440383569900737
860.0,-4.002378287326303,6.2857432695763595,-5.08566565472862,-12.012084397638747,-24.414363525566717,-30.5938127081799
880.0,5.332564218481638,12.40104176144648,2.8251819239254603,19.776438280733654,23.772974670893447,-4.568837602429948
900.0,-4.63756745690054,7.979381421713223,1.2987094845051146,-27.30543801334071,-7.581205609977621,28.56808697096524
920.0,3.1564738709204647,14.90738850064982,-1.3088181174409368,33.475205412421346,-9.70747847554584,6.4148426715579765
940.0,-1.658100568898256,2.313601187885131,1.424783027067891,-32.014030518199434,23.503631729013865,-28.131888517875716
960.0,0.7122561847785611,12.896409669844312,-4.036033565676958,30.352755165851427,-24.618740656885382,-8.302956231085048
980.0,-1.6051470194420443,8.935923887222687,3.0023082684102325,-17.891122172854608,4.525400580953093,26.24324599021364
1000.0,2.213532677636377,12.003911442825917,2.337154939861389,7.128457048296292,8.95936715413522,12.507396335792965
1020.0,-2.0965999630761933,8.183710507210357,-4.827816913851466,3.5010187889095805,-23.223127339829198,-28.454951348735282
1040.0,1.1361069071731482,6.373916373505736,2.4128832557568347,-13.552999623249782,22.297649407564375,-10.406817822918015
1060.0,2.0040621369982765,15.556053349710483,0.3100645898368404,28.421142050270674,-10.37096182997533,22.271741842522918
1080.0,-5.197417697428373,6.802431647618547,0.7056163302891008,-30.59416019067309,-7.238098884526197,21.848619916101974
1100.0,7.276625421398299,13.504142963725092,1.6540302934806626,34.40664739127307,20.46597619082455,-20.026008920282234
1120.0,-7.361387758616438,3.3859188785703593,-5.05206916514569,-33.69051898228844,-24.204301245582787,-21.4121994161663
1140.0,4.478341114500144,14.845020194502107,2.89870337852176,28.615240847095766,14.095339698763372,16.406051990578273
1160.0,-1.5310510109099336,9.986531692487635,2.416800629135754,-15.119947128332083,3.638466605794723,24.354763636116903
1180.0,-2.2063634887656765,8.988256223375682,-3.626053418427802,2.0906018501752617,-18.48821516877373,-16.614330935507507
1200.0,4.300086127037926,9.224078335801645,1.4335793537600476,6.618121960306249,22.61927221925176,-26.997358398424517
1220.0,-4.662646014383495,7.550407625610517,-1.481252909869717,-24.953724718809763,-17.730897478481108,7.280064519957304
1240.0,3.265502325782108,16.544996201849884,1.5358388514960297,29.36358763631855,0.1375397276939565,27.575849834339035
1260.0,-2.0313055275971412,4.626575354397501,2.4965776861183104,-34.60909813019519,21.30219219321266,-4.080933364453386
1280.0,1.4132618035077256,12.090805905407466,-5.5188978918699165,33.953126877174405,-25.961274963474686,-26.40859434954731
1300.0,-1.6697973460597584,5.47320595055869,2.580356388133012,-26.97662787002266,16.329165026680077,3.4322502996288073
1320.0,2.52220263837315,15.564121901017348,2.2947890454224544,20.316396279608544,-0.9544102874755839,29.46061524834081
1340.0,-2.820447238462425,9.47286154056745,-2.509640799814507,-7.21877045286082,-16.97394369392423,3.9019023826977266
1360.0,2.448480589192572,6.9446919381535785,1.5397779325597791,-8.890835338012357,22.490662007977793,-30.508673353688373
1380.0,-0.24536943262109767,11.511046536279677,-3.244456457688788,19.00478994284066,-22.013517616347603,-7.860451295550906
1400.0,-3.311683716809192,8.159922741436624,2.2212142683359595,-28.87252642968915,2.2221195393478155,26.378104268422483
1420.0,6.079747635759229,15.444280041586424,2.4712672637579898,31.535029028321723,13.3635111855207,16.47754819220205
1440.0,-7.605922550604868,2.4602002613225613,-5.1570771465763725,-33.95033519354395,-24.455105721196134,-26.90406911356694
1460.0,7.060636202807724,13.35796915456677,1.6925135235726823,32.34190283260439,20.663299797660894,-15.54779659551421
1480.0,-3.758565681347936,7.9145599112472045,1.0527759611358334,-29.441498657351744,-3.240537908998692,21.218685405358382
1500.0,0.1035010340311878,13.377875678121962,-0.7418534158265733,12.600575297108632,-17.596769081534713,20.314043985720538
1520.0,2.363890669967737,7.90550324564094,2.069621530341449,-3.667737307723537,25.02462309067124,-21.5935043658369
1540.0,-4.105874373110603,5.9622608766706815,-4.647186601642608,-11.140528700859639,-19.82760468987491,-24.162919035191024
1560.0,3.6319960631847428,14.6154767136762,2.390925980261535,21.050836697351038,7.19233281971739,17.487982387179542
1580.0,-2.7457132572558307,7.48691296340731,2.914361230183433,-26.688667046204863,10.519164239686235,26.944951100013366
1600.0,1.6866972854763937,13.677114975673522,-4.411405307582561,33.88161591949572,-24.97482063157897,-17.574065234181127
1620.0,-1.4462488858016305,2.809421598853631,1.4592077118931355,-34.86896187793349,23.61629998493308,-27.95307161019111
1640.0,2.5412686850906185,14.821387319408597,-0.8758067685573239,27.43166947032936,-11.660279325694106,13.00971633509417
1660.0,-3.5081998102344403,9.549097861495913,0.4340802179976966,-17.96643006491974,-6.795503066162751,27.803879192159947
1680.0,3.632380806753494,10.521055710884305,2.878309770697494,11.92100104968791,20.676160126585337,-7.303684007093399
1700.0,-2.272592738067042,8.145447799547055,-5.493589054121006,3.8540355693999357,-23.837345066349243,-30.91876991036948
1720.0,-1.0852077018227768,7.3107082567251656,1.890489217210281,-17.718516675888996,11.316821815429568,5.291023868404007
1740.0,4.503566602267519,16.05071094292806,3.33808401750073,25.005057419130125,8.342037701277949,30.742063073913666
1760.0,-6.62386024951427,5.175187816984875,-3.21755803114269,-29.715248560666836,-22.461333358700045,1.9955155705515821
1780.0,7.661155349526358,12.398810926090814,1.442142490414408,40.11829847350963,23.81798165248525,-29.58308880942068
1800.0,-5.559960066031739,4.446246717197285,-2.4484846984059505,-27.141057502977237,-13.780347624921598,-4.435890668131405
1820.0,2.5345887058025816,15.722271101708778,1.1781447784088166,27.30332424303105,-4.307905021921079,27.361267074685507
1840.0,1.2974439574872911,8.647850539856329,3.87709437045875,-14.131751627745075,20.322687111469527,11.085543816401495
1860.0,-2.57285119634605,7.457309830790526,-5.222533628583043,-0.5170051119911339,-24.11553452096174,-27.124746684659492
1880.0,3.3151337282661317,10.19713645112337,1.0857439851353319,11.887741939632756,17.814612914592697,-11.932512251991767
1900.0,-2.458851008735227,8.368860400688469,2.050238882063566,-20.622028473166075,1.1812204223308544,26.954843258328523
1920.0,1.614012175407147,15.525015289248934,-1.7021504634958076,24.944418198683362,-15.531302349288676,18.100818820285852
1940.0,-1.3671459734928704,2.8919215155608664,1.9538977770193617,-36.2356046999243,26.27715851817163,-21.67538645643895
1960.0,2.272933381993168,12.721602043148058,-3.665911803435824,34.569752489836155,-18.842141869534867,-21.27540608323084
1980.0,-3.9300456609813708,7.229627481551526,1.2520590103460771,-29.433946884703566,0.3327488259640961,18.032680059910753
2000.0,4.554444705245276,14.893351397341274,3.9111427651150503,19.670200134636325,15.701564653699183,22.741498229393077
2020.0,-4.01841075829265,7.700766565664691,-4.4730528348901375,-3.5152594351273576,-25.043825020726842,-17.725160186274554
2040.0,1.6623594998431692,6.67213902536159,0.8820044196690904,-5.327203906789969,16.876214953349855,-27.414018294850038
2060.0,2.0233501016416784,13.476632421326741,0.5901685272850865,19.001213422942595,-3.723364666436982,12.63901903590908
2080.0,-5.168765499397143,8.408418708241967,-0.4561016679402342,-28.88183369269487,-17.46130198248501,28.386831319152137
2100.0,6.997440483343317,13.884532885506486,3.213719013004688,30.5706012737309,25.07799724051651,-6.345951223771811
2120.0,-7.0263639749749665,2.3936795720452113,-4.843178114820116,-35.03536494360592,-17.818132963045766,-30.728223120390396
2140.0,4.341255414381914,14.694153641764768,0.6892050805719836,26.710787854846274,2.8359758987665957,4.66581473790448
2160.0,-1.072236544808125,8.859143797670853,4.117729785505612,-18.49784671373664,14.111197986654254,31.118968148342503
2180.0,-1.2450099217652775,11.6619981012899,-3.2259059238638415,10.733895633744217,-25.352865832262477,2.0776074957363893
2200.0,2.8080910590398496,7.292036065725569,0.8698107944379164,0.6628656122731431,24.75482644171933,-30.61361359332989
2220.0,-2.5559997381548314,7.1131578077042805,-1.1977082602462876,-14.526932454969279,-7.048377963169766,-4.298375810083627
2240.0,1.4529629845490322,15.457695106340347,0.11502470422777547,20.41552960645967,-8.921803569326908,29.960872028030604
2260.0,-1.0675768489496225,5.898862541183338,3.882159059642692,-32.84676139408904,24.183995146482008,14.835655285170153
2280.0,1.8145780672403,12.349138338695582,-4.971057101189161,34.60901816372699,-22.727791668979968,-27.038642072044482
2300.0,-3.3293287694029656,3.6860407556813315,0.661043569947932,-33.32660025303047,8.918525049189226,-16.466422363993743
2320.0,4.666782778617692,16.074097202844996,2.956690507864447,28.91720131914608,11.93994937724254,26.149793492961955
2340.0,-4.841034003191191,8.590815580770327,-2.08485646767385,-17.07625260121553,-23.235214327291942,19.988695907518924
2360.0,3.310472350536666,8.41476967109768,1.6346931974637895,7.598110295764789,21.460970899462346,-21.75355305576462
2380.0,-0.4384117104758437,9.336322031626464,-2.776408166601622,8.410408419976221,-14.97094631300121,-20.86141938513561
2400.0,-3.2212816705344083,9.159166450302235,-0.18414717539955233,-20.431407695073066,-7.197120449971381,23.099660795085402
2420.0,6.303404136165763,16.24619791364914,4.59107475977092,28.93916725441803,20.281859824816934,23.80114045316783
2440.0,-7.106849980946489,3.355584212621404,-4.59277296887128,-33.6639509698125,-23.705892182839026,-19.55985051357958
2460.0,5.962701636295728,12.59160838680984,0.03879876430783345,37.79664754848828,11.664489072113417,-26.171262389415237
2480.0,-3.1971730240449383,6.5595554825669184,1.829686819660951,-25.331946884422045,9.538030557064571,14.272356313118156
2500.0,0.2863757667357966,15.500095474331093,-1.2042667237409685,20.754660521687814,-25.740051335421132,31.85296551887451
2520.0,1.3112173671121057,7.032572071836531,2.678403842513077,-10.27700488760465,23.82304616537046,-10.738581433344768
2540.0,-2.02411462688027,6.788848373832026,-4.054584096201106,-6.648430381262144,-16.11007624408592,-31.33091749542229
2560.0,1.5655309525233807,12.065870642757773,-0.35658732391880327,13.419617348467034,-3.3025196940099373,2.4044348770353747
2580.0,-1.032088376215771,9.06058224554488,4.381455576232823,-25.912170284339762,16.569707247887752,30.408515701890764
2600.0,1.1526536518973212,14.202516863604343,-3.813691967349747,36.11912490681562,-25.845286899425478,0.14955591085456743
2620.0,-2.54990679418369,2.2217321165728228,0.5797529697526529,-34.174355069809536,9.208130720113617,-24.959964287892323
2640.0,4.743853304286612,14.007112498184016,-0.3289373748894428,36.21785690216844,0.10062211137111632,-4.533015343650371
2660.0,-5.5171486734877675,8.525466413969927,-0.5576605792458101,-23.63522604713405,-16.98606076045622,31.486445577486087
2680.0,5.1193500760508925,13.240691518848056,3.971320511139068,17.361281996806788,26.07637465190628,9.566003080511818
2700.0,-2.962703250205188,6.993773250409888,-4.639194371276477,-3.6667769336974105,-18.00833550209169,-28.74812839237055
2720.0,-0.6513508964357162,7.586186822802071,-0.2257175764705458,-7.525668195298389,3.215340628369627,-7.276759054553135
2740.0,4.634390605717694,15.04847046619932,3.84175658069669,21.673436368719038,14.343837995279687,26.600907267070117
2760.0,-6.63464311776551,6.928716344222604,-2.4100651316610713,-27.405812136892543,-24.323165925043053,19.850419260152464
2780.0,6.658846304462692,12.733305932496329,1.2042496019434408,34.578594003379834,19.06295423229803,-23.451638377201707
2800.0,-4.9303209531087795,3.200024502349739,-1.8466791921151184,-33.3987040547146,-5.232768529412486,-18.51526008959824
2820.0,2.224234370005443,15.7009372167422,-0.8536906207320216,29.044361526363236,-15.222064997946173,22.950278367857685
2840.0,0.23389703463999123,8.728759676544032,4.909014521469898,-21.578080448849676,24.490333799862057,23.026641230298978
2860.0,-1.0849294849455604,9.929368184151471,-4.364065895109507,11.22030715633351,-23.96622240609249,-18.014021696738283
2880.0,1.1480744216878118,7.911114418877492,-0.784340329776402,3.2120006229677256,3.670714500820834,-26.44928733114002
2900.0,-0.5947391823549615,8.439948056192039,2.6239234600134216,-15.201181391587289,12.701068027057477,12.739362774740396
2920.0,-0.13248214817799464,15.641050747318916,-1.3838352027084304,23.107797014582005,-19.967316484009466,29.444104763145646
2940.0,-1.1840509773849834,4.426847150485264,2.5141144891530054,-30.3484819879955,21.90998953477817,-13.90359967675029
2960.0,3.5301453026847436,12.877643457211816,-3.3551455917626516,36.89294582677291,-8.806398033037423,-30.803158985554987
2980.0,-5.662820780372874,5.619982828585987,-0.7225387275589623,-29.386330361027525,-10.56296225140411,7.035966106115015
3000.0,6.094178543080974,16.54551318335845,5.077823389099186,25.92165135632677,16.847260541723365,33.14708508181028
3020.0,-4.94565471084417,7.650339018453678,-3.3382744626978966,-14.010835442093159,-23.42698948471363,-3.695277293521206
3040.0,1.4720604725543238,7.660415666611484,-0.20648273937151712,2.268126928502193,9.025166731846689,-27.327808901734628
3060.0,2.4701711516780436,10.985604083494085,1.0580990730023903,11.82624846789329,7.41710651959406,1.0768662750618265
3080.0,-5.656423775740827,9.328193197886305,-0.8825115879194063,-21.531123010316342,-22.01238061292672,29.144635538767222
3100.0,6.926977159306787,14.583374564659723,3.861326962653123,28.108356356826405,26.911428831937027,3.3991094184879564
3120.0,-6.1339450108437426,2.3021284817839693,-3.701755175595895,-35.05202970023521,-15.235401413393529,-31.131000686392746
3140.0,3.6780097504245313,13.787111372333493,-1.7001182361011025,35.54402891054745,-2.6902749978439657,-13.962100533567426
3160.0,-1.6041981771640332,7.801333707307035,4.624186547701612,-24.80072937544898,21.481659090955453,30.491509851915225
3180.0,-0.5926423305595672,13.895366872351737,-2.7953026215283767,17.60804648911957,-20.376267467742505,11.987008423445861
3200.0,0.3636727904438345,6.247464391018377,0.5772639966869637,-6.287030064996548,18.109759780776727,-26.36882692517511
3220.0,-0.27031126107643794,7.755164404755352,-0.7535302471256062,-3.573707646977494,1.972872194885195,-18.442572565948648
3240.0,-0.41603338137355206,13.767914418281427,-1.456316313833559,16.09270196452678,-19.86869571189418,22.63663415791032
3260.0,-0.27635649453490907,7.766869050249299,4.992081017909878,-28.63303240518529,21.719466464918707,24.355315091809395
3280.0,2.0209887092339907,12.683093530159669,-3.7654726849388194,34.52777813009051,-17.784198598065785,-18.700963758374645
3300.0,-4.5548760044115415,2.5490267886823457,-1.9424823831372586,-35.49594046979275,-3.427496035355606,-25.865815518069958
3320.0,6.278425826433987,15.677754952824458,3.6153060859065245,34.3351693702072,17.467921389698386,18.492263790537493
3340.0,-6.292321515692176,8.673829463873094,-1.7485535450960776,-23.37553193452958,-24.33571594973464,26.046288893370768
3360.0,4.137383226262748,10.315599948313823,1.91185184954244,18.40090795085464,21.439878340085627,-12.606703854182491
3380.0,-0.6205814105779593,7.311690712214349,-2.249822615095396,-2.4268994760105893,0.495341517073391,-31.20486991231188
3400.0,-3.418755955461782,8.92219125120712,-1.520094647607069,-10.19550168329064,-13.726000137552202,8.210213139808614
3420.0,5.816362560896582,15.505271671860902,5.3421895131408625,23.612856186466928,25.092675676567808,29.877096720602882
3440.0,-6.126236684306811,5.0507243730723195,-3.1139684681361746,-31.66832903902637,-17.398459626695782,-2.8415344983528352
3460.0,4.707008105226312,12.101936803415628,-1.3439657615603615,34.46618043501716,5.338957876736455,-28.25781179499928
3480.0,-2.778955831008688,4.769976735263998,1.7408955829464918,-32.79663030327624,11.120612514564057,3.6967140659195783
3500.0,0.6487946925592261,16.264739669964616,-1.7293735119873048,30.37721305952153,-25.487013449143372,32.307760894045884
3520.0,0.1886128958387293,7.246837357795766,3.3347681010815746,-20.50688736339529,18.9419314049699,2.2015689364521007
3540.0,0.42396280792962415,8.146813654962719,-2.8620890989961465,8.224790478028476,-5.38144565176424,-28.876920814908537
3560.0,-0.6974321656523131,9.76365209810087,-2.6242363244046265,5.27752447298883,-12.332949670107352,-6.210158463837846
3580.0,0.8102935653157111,9.538674513085159,5.199250024728901,-17.429861713122747,22.637735722097606,29.68004064931202
3600.0,0.805863228383041,14.787485877304968,-2.3650115435406436,24.584920266530986,-23.539898566332166,11.984359865733035
3620.0,-3.3654098719680183,2.776781232285546,-0.6473781631968838,-31.65402475387887,9.317892970678319,-27.414393610211395
3640.0,5.547869018803422,13.251281279499421,0.30301670712449885,33.624853991165615,10.505013952119555,-17.32705094765439
3660.0,-6.910851019334621,7.201533769571281,-2.0481112185406665,-33.7268376880669,-20.650941899580957,25.31589247807659
3680.0,5.785435832701664,15.205718768940399,4.891994038638782,23.772542796146514,20.252141145178896,22.876743334766868
3700.0,-3.2578286179173177,6.187151683519777,-2.710252909973245,-14.89631304109549,-10.62582006961871,-17.274077475241203
3720.0,-0.7024282756543375,7.767770727258705,-2.5881553145664262,-0.9955824395576632,-9.501539269985065,-21.397686045625107
3740.0,4.074884103953488,12.94734184274321,4.165939927872623,10.968323809594905,20.929076697529627,14.380838427344944
3760.0,-5.854546304256404,8.641451436359409,-1.5906883481018905,-22.33748227073914,-22.08048862023934,26.65258823108301
3780.0,5.456858107611822,13.319561631904088,0.7668581655002816,28.554982627062497,17.28735473777388,-9.786444920251746
3800.0,-3.644191373779436,2.3208002949104287,-1.0290270940896078,-34.306376993062166,1.5511315427333097,-32.042376943583605
3820.0,1.733123761493057,15.310222326899114,-2.1532443891175816,34.37275834084871,-19.603914602652484,5.241354832434634
3840.0,-0.7236888081733831,8.348684649744722,5.369250285165197,-32.49076898336157,20.189005844561272,30.93719661587096
3860.0,0.618590216258155,12.092467186774769,-1.9789299343610427,19.591991580193564,-12.418549244934267,-6.316304311571439
3880.0,-0.9848919741215616,6.067987544507634,-2.5899693457487594,-5.762102895818099,-1.492772894857803,-30.062155952733434
3900.0,1.8510158335027356,8.710334796503268,2.711687959636984,-5.6260394185224865,19.22611553690392,1.8961218407480978
3920.0,-0.8038495820877851,15.00564106366213,-1.4216518099025748,17.89475901835076,-24.101785286665248,28.538434767809175
3940.0,-1.7073796338710705,6.016854271514773,2.6732776130628766,-24.733687865146138,18.351069862439957,1.8652425577540634
3960.0,4.353239891936294,12.139372283788916,-1.7909458784926748,33.57614848481242,0.522504587187233,-29.645948087380436
3980.0,-6.479513143723667,4.170929694666832,-3.011791441791878,-35.93875495465463,-16.131136750211738,-9.324281004056854
4000.0,7.019902573481775,16.866831142552247,5.521127715361718,29.663531542494535,25.350017916162297,28.5990894566686
4020.0,-5.529595176142821,7.440915697279041,-1.8050510464945815,-23.14453280269155,-18.02258325546176,12.178356878605351
4040.0,1.7024135162765495,9.416134154589379,-1.4488647309919307,13.89536176613684,4.424332757990747,-26.683066140451
4060.0,1.8922685072455123,8.349227226840569,1.064762591590894,1.1239577650472377,19.297751353374558,-16.931018929715584
4080.0,-4.742225867739342,9.912605845115959,-2.146423779466245,-12.024653714944987,-25.966352230447125,26.732953637849135
4100.0,5.441137251989129,15.256234393321703,3.829741166822988,23.599853385735297,22.51522207898769,21.713250756472704
4120.0,-4.359735036590806,3.2727546683505193,-2.1790839598071963,-30.20229173386508,-3.866427843596144,-21.092480334208908
4140.0,2.918601907231151,13.057440038804714,-3.3553068531943318,35.68780012620685,-13.05513590153389,-20.572021162864225
4160.0,-1.0540127723078196,6.342931754235287,4.62803743270453,-30.648526919412973,27.647474612994912,16.150445578282792
4180.0,0.9347450224560716,15.772150089529662,-0.8450602469071848,30.795790150242514,-20.288894893118815,25.397222682712815
4200.0,-1.7926737388206524,6.061094183872364,0.1119896140808131,-20.187358879774585,8.909730087648565,-15.089144178024798
4220.0,2.4486586821602914,8.453140478294749,-0.15217972790494239,2.6156555476114085,9.778360941882855,-27.500132570104157
4240.0,-2.01872537818389,11.776619100137777,-2.769020754218482,9.130549215057492,-25.356401538200153,10.995601283576192
4260.0,-0.15301249062066014,9.652932538010024,5.051138220751978,-21.310139805737407,20.170762516692086,32.835010059211484
4280.0,2.302051153834411,13.662319241764614,-1.347110841342896,27.755959337234497,-13.522951654383615,-7.216258450165904
4300.0,-5.860548971614578,2.3179119204707677,-3.337940593683996,-36.19234270035628,-9.381265006766885,-28.39651286070029
4320.0,7.321051091053833,15.216107795563818,3.3240934189563345,33.58031586699382,23.743932954950818,0.5401534161577692
4340.0,-6.739037428998319,7.898360620985428,-0.8564695427208371,-35.75741563608847,-22.68797819667055,25.91027749010306
4360.0,4.138024963589326,13.180254835192407,1.8013973915059829,27.751010845002718,7.409735818114072,5.020297385022589
4380.0,-0.45087795359294564,5.769864945692523,-0.6203662429761551,-11.855279009222084,7.80335722534224,-31.541171643657954
4400.0,-2.824541673720337,8.879060593343127,-3.6805320132650974,-1.1906424205388235,-21.76979606264843,-10.20483059176205
4420.0,4.5560345282465065,14.12269859382525,5.370738242910416,14.467416919413447,26.470168868796577,25.671001284334093
4440.0,-4.525683578866447,7.20734531277467,-1.0012542010071672,-26.23858094293311,-11.837804945166084,11.584951738393611
4460.0,3.1064207050552106,12.232337847447795,-2.2844713166680113,33.551945251009116,-7.692983069926088,-29.52332956573097
4480.0,-1.893993162081807,3.3861729538601417,1.913583630278292,-38.457422101367406,21.83065639243403,-13.104299604550446
4500.0,1.5061796834091452,16.82255061671223,-1.7710913065070153,33.44807965892424,-23.9710146229559,24.667283648307155
4520.0,-1.7192497896090508,7.665208404890551,3.4585520657215105,-29.10904342280988,13.256133517981057,16.895923194494024
4540.0,2.5929607128900853,10.460011625146379,-1.0667950992593374,13.095448187960157,6.1198329809570655,-22.977557343299004
4560.0,-2.905176277440944,7.229311709727144,-4.132343779171205,-3.649387561880085,-15.529539827811309,-24.92728792217822
4580.0,1.6981105095928688,10.10262479853197,4.982807485218326,-4.38072375888873,22.917379444475564,16.825208706108427
4600.0,0.6927154214364983,14.631455497109748,-0.9874246975968763,20.38262690925487,-16.265989021474972,25.456912021172847
4620.0,-4.009146489554582,4.273519888306719,-1.139623190167355,-27.368623840972422,1.0213020794323153,-15.679458934561746
4640.0,6.799470587595477,12.56111692672757,0.6659961658300109,36.253412164170534,20.175347232812815,-23.305303481839545
4660.0,-7.195968566632327,5.869027978325481,-2.7876955144766353,-35.098801559332415,-22.327794168599443,10.586995326457743
4680.0,6.246246790110234,16.578554241995825,4.269206708333033,33.39260594741573,14.486311714057713,25.834477130943895
4700.0,-2.8105489911700507,6.279210559783173,-0.8406771371233654,-22.47449571405306,-3.934045210681176,-8.19032002632506
4720.0,-0.47364267705323115,8.775541590357657,-4.123354015773645,8.981935427337072,-15.839556163373995,-26.67819386534288
4740.0,3.0696085332175373,10.503076805801589,4.07280949814308,4.692029735672746,24.43878033747361,1.7898662943525068
4760.0,-4.05024711724186,9.94122433014266,-0.5889829832092341,-14.595458474482928,-22.94322825901017,34.60195108314568
4780.0,3.6909088478928695,13.38277014263449,0.4076459852689652,28.65261961733936,1.9460520997154853,3.5994156734222056
4800.0,-2.1433910941530674,2.442374341112034,0.24932211672571652,-32.75374449591025,13.383931018649223,-33.661993172300974
4820.0,1.4004773955798773,14.540279282762963,-3.870988668478999,32.14059089120543,-26.05717349070556,-3.9935447873041707
4840.0,-1.4981300109247526,7.6611025923632745,4.970891930541781,-35.13138554708578,21.446381996866958,28.60392500802478
4860.0,2.8157094026122467,14.155225245946925,-0.11923809975807072,27.198442819358707,-7.675228946122536,7.442467982590521
4880.0,-3.3915543761829383,5.4231323407722645,-3.8114097709007226,-18.574842760278543,-10.623649727549616,-29.045173902744803
4900.0,3.3327917211154485,9.27333110465537,2.7155732491619236,2.5954325952230968,21.63583061624859,-11.418540481748062
4920.0,-1.4996975600603573,13.667163506122975,-1.4801521073012054,7.460324225555584,-22.05333004197291,24.505989864192294
4940.0,-1.7840741622043592,8.410381304622591,1.9488630297316318,-21.390677912483888,7.32345945878295,16.060363581212382
4960.0,4.728717223523605,12.262622529030418,0.10793732221667818,27.77415719331544,11.89005238627611,-21.453079037209612
4980.0,-7.041867487186422,3.1433293423407176,-4.460194660767894,-33.226218881485096,-24.864791936862954,-15.759276781545257
5000.0,7.115800142109649,16.312487863278374,4.562456282800334,36.82116994109268,20.287271510727713,21.641607851563183
5020.0,-5.3485808557064,7.561631069108639,-0.11646459025717953,-30.985628413436896,-14.15788435150014,22.139743888944132
5040.0,1.6686629363100254,11.599759110800846,-2.2434107071204368,23.281296006764112,-11.186104356513006,-15.815446331781
5060.0,1.0548021153015865,6.154065238171645,1.759875555643003,-8.67606520556292,20.925043641530955,-24.920245644903872
5080.0,-3.3415738813336855,10.453539511450984,-2.5749860283859687,-3.009365423166622,-27.17048906957178,13.975468877487362
5100.0,3.4993129149680393,14.51921796609474,3.9104779196242285,15.98468179813453,12.276192727744347,27.867092894697812
5120.0,-2.638450893683646,5.239667561703444,0.24472252925868185,-22.866601357664948,7.090868478112891,-7.480510090749673
5140.0,1.7196449774794904,12.021332200095884,-4.954016343517543,31.733608093198495,-21.198986786595583,-30.414630485756778
5160.0,-1.6473581550047722,5.455188365586821,3.675992415190685,-39.2954412654333,27.28820462586523,5.700093769776168
5180.0,2.703971088600726,16.837632197327835,0.09691050966145573,34.54558810454218,-17.60518411040599,32.039158340462855
5200.0,-3.4588428338199764,5.987742808954726,-0.6460334590928987,-21.96035529030442,-1.7506297910464217,-2.456743582177057
5220.0,4.14325247800962,9.396696021048195,0.7112779257757791,17.31256565584156,20.139400184165908,-27.924403573655397
5240.0,-3.428106409033898,9.303822152756585,-3.4934754081620425,-5.947497689018421,-24.96537950345567,-3.0525785226028765
5260.0,0.6913719929429553,10.763807406771905,4.194505896866453,-13.45275736301728,13.56681659669087,28.179599624258994
5280.0,3.4812554113953427,13.544493081440978,0.7479964717746672,25.881656556524803,-1.2696370181500995,10.994554605120369
5300.0,-6.151284558580887,3.0245895838707346,-4.015529193918901,-31.494425557497408,-19.211529111435986,-33.77498353205331
5320.0,7.291058972943996,13.909305666110738,2.794889926312627,35.36155081139532,23.81877486995856,-12.807221822119763
5340.0,-6.489768905045637,7.301515891658193,-0.8764643596474637,-33.17164142027351,-20.218844933872028,27.06780472554854
5360.0,3.878147044310412,15.120589571919563,1.2139031515243348,29.395699776249117,-0.6068444246854694,16.393140646275267
5380.0,-0.3961322602962424,4.845187748847316,0.5196655010537492,-19.72155502860552,17.37475292112725,-22.796196231149917
5400.0,-1.5911148608056442,9.476853824398747,-4.995355248729184,8.224520486141945,-26.196283799575752,-16.175038830808163
5420.0,3.016793136581284,12.175689542147802,4.222247581596559,6.13669438467833,19.982250078773255,21.80598535044884
5440.0,-2.8693411851334494,9.476614666591555,1.1099728586160653,-15.947455777898705,-1.6913663628971796,22.39050575103482
5460.0,1.8060453926163325,12.336324635777814,-3.1441755133347984,29.207446777805927,-12.936276110625968,-16.546267801204962
5480.0,-1.4129977610548472,2.958086095955413,1.9071045474954857,-35.117985512292115,26.6565704771999,-21.917356023107878
5500.0,2.057184884939458,15.95402975245708,-1.9646263636791668,31.493053057590654,-18.950523534629166,16.32680421308954
5520.0,-3.303584040759081,7.511958440835333,2.772897825892329,-30.83567103832649,2.162387285294078,27.843933215495255
5540.0,4.5108055583049325,12.526470782507564,1.6059167077631198,25.57718092984672,10.088122060888303,-10.939086791649059
5560.0,-4.795064882484126,5.280769743481691,-5.442932360065975,-16.066326425386258,-26.931479048563695,-32.461686576576696
5580.0,2.596934251224689,10.70343128022068,3.4831675806099516,-1.6880839368627933,24.64884039563656,5.968042697755213
5600.0,0.5588405208615083,13.833815634141116,0.9717906654892827,10.971231321133134,-8.652016525759624,30.321319621143235
5620.0,-4.524090022862752,6.376090714554253,-1.6485815959431307,-22.442319097454654,-12.422115345211813,-2.1470778067434932
5640.0,6.571267278931117,11.600315551153116,0.9786735686462221,28.54382956074405,24.018816025675836,-28.189239045643014
5660.0,-7.323165785043226,4.676205433296843,-3.643852282047025,-39.67377890842171,-23.488275688607917,-2.8688758645900814
5680.0,5.510074053367025,17.392857636162695,3.1407815895334865,35.727768602269734,6.59353552375707,27.97040176649518
5700.0,-2.8773189321063986,6.101365469084465,1.4641308730081797,-27.330895521836993,6.924515989149501,8.326648135580179
5720.0,-0.1437806208660456,9.913988372616947,-5.2638728605218965,22.85807652983822,-24.513968930201184,-30.03927610146539
5740.0,1.9569970887522132,8.080863462890443,2.8048291917675208,-8.517791527446638,24.21418084980033,-6.320232775787853
5760.0,-2.007499896484527,11.392405461432855,0.31248296323055547,-8.109598554127956,-7.832275246958401,28.864835349573806
5780.0,1.6330727486322278,13.636848446311058,0.018699907360194834,17.206483023371362,-6.717828398615999,15.003857487864364
5800.0,-1.1381270719919,3.8143592640815296,1.22984380589929,-27.62966247408073,23.802009435831607,-25.88330990728566
5820.0,1.3883311689866966,13.46097340518905,-4.812437318111539,35.107996720089886,-24.783630896232474,-20.545200649068388
5840.0,-3.270122385515787,6.598153559743194,3.4800617939249743,-37.68810879710171,16.136147339957823,21.555408226048893
5860.0,4.60746048092419,16.171665572868555,2.140911553261517,30.561836458942715,-0.48474212775602066,21.50678247630341
5880.0,-5.114906330099223,4.906131698254081,-3.7576541415236435,-22.07249483000288,-20.552530896048733,-21.39588947939964
5900.0,4.681394129560889,9.817438372320243,1.685310309129614,10.719317447145974,24.161119604628336,-25.16940574768105
5920.0,-1.8963439439275946,10.85073856192182,-1.0191324920744185,-2.5425535568951427,-18.120727927200882,15.276270060168448
5940.0,-1.4969316284353653,10.237457039389975,1.6709818930131866,-10.890262749578016,-0.4428816758916635,27.071070072708828
5960.0,5.22657144017916,12.020946635531297,1.3573771107786174,26.906503517911194,19.198897125211236,-11.807407351545748
5980.0,-7.087015557222314,3.0715305805339277,-5.53597718136592,-33.36476989903312,-23.554255565045604,-25.032933681938765
6000.0,7.203008312932177,15.648052573120884,3.0295523669348463,36.49484379931957,19.321844647655055,8.080179357759729
6020.0,-4.632237025724812,7.516753180273888,1.7487500849864828,-34.968001230744484,-3.6790989189779277,25.708865809760102
6040.0,1.4045152681288406,13.1600049420769,-2.6433660935717738,29.738394834858255,-15.040791755954789,-0.8765482742811721
6060.0,0.5628029528762437,4.835155139745233,1.6002149081098003,-23.026289123212077,24.734948527668603,-32.076641490203144
6080.0,-1.404228302706365,10.701200369184749,-2.9261198515763347,5.239084671712815,-21.016644154430377,-1.8150780876179013
6100.0,1.5537738626549658,13.335564585838371,2.3878655948812333,7.887971837560141,3.6775969613815747,28.61668998434336
6120.0,-0.7451816689087911,7.3106484378149785,2.3523939218800836,-17.735406790951107,13.672688116849294,4.984728231031362
6140.0,0.64925093442826,11.219059738495398,-5.25325631279897,27.735469341056476,-26.708261427337646,-31.189798341716752
6160.0,-1.7742041102375805,3.918110362688871,2.175308392866391,-34.884888941871566,21.917539734567136,-7.748232881463322
6180.0,3.4853193368529602,16.94260264231998,1.0645706593227993,33.63033544964658,-5.424397800449124,28.68886329841471
6200.0,-5.67496408972079,5.953963307978918,-0.8480873223381252,-29.573328948065427,-11.319382193930583,11.89269848653582
6220.0,5.8077591483491755,10.505611921444189,1.7353367769854742,27.640265238274438,23.04001972004471,-27.574843084377328
6240.0,-4.371896865944355,6.686085193672827,-4.154712106234392,-11.837445724952843,-20.27059124059682,-19.176236510885264
6260.0,1.3109956960499458,11.4711201291372,2.7487327056629027,3.85187746667094,7.156964133295732,20.38708127808324
6280.0,3.179840285869145,13.427408281169551,2.6090730793302686,14.366588138726852,8.166880033212053,21.639313743823124
6300.0,-6.301997968508305,4.582181741199284,-4.45487431852083,-25.064827116796838,-23.54323275728251,-16.704742101615974
6320.0,7.11236120605093,12.197057224381673,1.569474798876062,31.483289495541147,24.34506884272531,-23.59051782885548
6340.0,-5.941855688655678,6.003739809386728,-0.4435472436698047,-37.0826830381357,-11.922508137501984,21.617344100794146
6360.0,3.1289716466442865,16.644004915286047,0.7632432438926481,32.01331260633369,-5.6842954188884836,26.566400088172845
6380.0,-0.4997059545970429,4.838456776293885,2.34662054281146,-22.55432378732373,22.612532185565172,-11.638676847347881
6400.0,-0.7152967921446912,10.065343790108328,-5.205677683588669,18.867065843006436,-23.789211508253498,-25.285504018574258
6420.0,0.7198865997291509,9.747221796211758,2.214864843457801,-4.714856283927476,9.785780654164757,9.7836197390705
6440.0,-0.5139755253658282,11.020597058983936,2.572495230645577,-6.472817049696695,4.368795714526553,26.926398147352316
6460.0,0.22499849410699127,11.970004239275962,-3.5370230798497038,18.392179763167512,-20.559576841082606,-2.5100701211518754
6480.0,-0.7319016199063381,2.9536896663379593,1.3763064836022256,-29.269202606820613,26.47992717958324,-28.137295879549338
6500.0,2.9020691219814223,14.88607942524823,-1.837917926547922,33.9977996983149,-14.856644813729842,4.25303132840056
6520.0,-4.970429189683902,7.245905240559583,1.79256455191989,-33.15487128446339,-3.9645137120703913,30.0773633584941
6540.0,5.989461338808016,14.49077060851588,2.6367628328244224,29.602886355352442,20.667030748956407,2.9671494433384256
6560.0,-5.680228057038437,4.3091100430881095,-5.723720387382138,-21.299603356629245,-26.150848943441638,-33.41328294206311
6580.0,3.700928933704002,10.721319588884898,1.9092230221732815,10.119697570131864,17.112145111654517,-6.115968424302402
6600.0,0.32719004419011644,12.591232480084626,1.8981340276348921,1.8211137200206067,4.135038305501247,29.29798329183276
6620.0,-3.9334190593707534,8.452191222411958,-1.5868527520014448,-15.666185818041962,-20.109042357033726,10.344109154792884
6640.0,6.201936345452172,11.317105524879368,1.5806913895823151,23.359405343285825,25.872486075238683,-23.73945551808431
6660.0,-6.28995099154049,4.123198283450015,-3.9772134794180967,-27.081084932544954,-19.04868529549905,-15.333499741950806
6680.0,5.005469406464906,17.111498971480042,1.8276272659072579,33.471233127099275,1.2451107888654487,23.96231428171035
6700.0,-2.361858307079251,6.818107709699834,3.9095753039884893,-32.52465739995208,18.303259231543556,20.710764811703314
6720.0,0.6707665696290094,11.812180628133211,-4.815201860748639,26.01671505731876,-18.942291964188875,-22.003292695469682
6740.0,0.07228081502870992,5.718390797163638,1.0710207398111276,-16.890754532585923,20.026177880455002,-21.240285178351755
6760.0,-0.030483735991483685,11.552676615117564,0.7063862630404163,5.254575130738803,-1.9918495442556947,16.76013351330627
6780.0,-1.0259689603390376,13.256019533050237,-0.4015051589113632,9.245553515608632,-14.998343313297598,25.836576049758435
6800.0,0.16543123057360498,5.462849030820024,2.225828953842985,-20.48237457406019,26.19950216571445,-13.569541381602901
6820.0,1.4214400289315565,11.745380877054613,-4.772375361324401,31.250345373718584,-20.56695111702977,-28.208102461926398
6840.0,-3.43286346568931,5.534438346311239,1.2297624761278534,-33.53770629092943,5.4316454277963935,13.606997302842085
6860.0,6.263748107164129,17.344920534881602,3.680081919950991,34.471037187968825,10.43163904491463,29.292573051387397
6880.0,-6.724741050516289,4.497408307225247,-3.9893327507019354,-30.440036627604318,-22.511131606261216,-2.4469901175655666
6900.0,5.520269271550801,10.37072871225761,0.9705457263309426,20.60673533571286,23.534210327884526,-28.9793098789558
6920.0,-1.7432585945973236,8.474202639193157,-0.7618476997916344,-7.334591118791644,-6.159190933610513,3.5223432651889297
6940.0,-1.538609415692256,11.706578143743785,0.4390691154142015,-3.8198309806757513,-9.02104608591531,30.605876808791898
6960.0,4.820432466826066,12.132402891361336,3.299667429147933,17.21763154799593,22.180630499214402,1.7272794659690787
6980.0,-5.981487024454411,3.642705015485947,-5.056689400843462,-25.542751126347984,-20.760043093960554,-28.308738591428337
7000.0,5.625728024933249,13.671213079023806,0.9736701031146662,30.497075334436886,12.226539371622671,-3.094848908259883
7020.0,-3.4531264491464446,7.453102513875306,2.952397195392208,-30.971948362481424,12.482016461006292,27.414266085620863
7040.0,1.6349369517410521,15.050133077449933,-2.5692508466883384,31.20798804142319,-26.912334764338983,9.542254441214531
7060.0,-0.45979043818416654,4.04750629388861,1.5722296494286732,-26.871839186866872,22.13206258157689,-26.540065567238177
7080.0,0.4836166575413937,10.727145707919332,-2.81793381799342,12.967649559548065,-13.8279701781294,-15.204984696252295
7100.0,-1.4932798285218876,11.5084893083799,0.8886343045836064,-3.9849544555163696,-2.6720995290555516,22.548169837730303
7120.0,1.3593607530200278,10.000191147146246,3.943921858700549,-9.717841741211801,23.65336091205152,20.72489546676836
7140.0,0.09824723628064275,10.962499255169853,-4.325165608476649,18.32832915524446,-23.20343537916748,-21.66459047313339
7160.0,-2.3547780807341883,4.105722781232164,0.7068435552726672,-27.09699345388678,14.341662940477796,-20.827801901515258
7180.0,4.669620045349172,16.33017086052174,2.069204552227191,33.80513466910665,3.558596149930862,17.71362405903496
7200.0,-6.659849025497507,6.927326075572012,-0.7646236962359187,-38.187490265418745,-22.344573059005434,22.850749876316314
7220.0,6.789075252498544,12.736765245344545,2.631945587869449,28.784313350211146,24.82452989247063,-13.735297305014504
7240.0,-4.383400148870899,4.826559487387961,-4.191642201159933,-16.730793518167683,-16.850998337407542,-24.27982644528411
7260.0,1.1541811064424936,12.281411530210384,0.3981684747759073,9.352160034437592,1.5906940238534932,11.018633867404782
7280.0,2.501632225297136,13.316354252660343,4.3038329720205875,4.813419573724305,18.449429676175303,27.55674749759899
7300.0,-4.82107359866706,6.678629899837582,-3.8813188197091484,-18.515488462213867,-26.121093597043892,-8.060068377609053
7320.0,5.1601218121619965,11.10302149707975,0.6023112885280087,28.587759054934523,16.170135916197072,-27.837689741067205
7340.0,-4.294600507205224,5.140095756491721,0.4026651543111599,-33.84715214526187,-0.24522771031255158,2.3857497826281255
7360.0,2.474899682501474,17.42203350549113,0.02426173004590715,38.10549921079725,-13.487447288271591,31.919282810240993
7380.0,-1.1364597031342347,5.23572172339382,3.683371003347806,-34.70742794562374,24.590758563952246,2.6994245078317363
7400.0,0.7173235255916885,11.07952631715124,-4.652509693994414,25.367397654087938,-21.08570435604473,-27.55152107866911
7420.0,-1.3372201486536133,7.113657969247687,0.22702300626770194,-18.566409114157835,2.946251869546742,-7.243185647580845
7440.0,2.061505296538504,12.263513100541873,4.048081665857095,0.6005141175326913,13.840101223756664,30.176588288872114
7460.0,-1.442625648652483,12.494210939979325,-3.1094675009038033,15.596514950713019,-27.31894575086028,10.349284039826276
7480.0,0.1378560166082905,4.350762860041079,1.0760549886624395,-23.7192607730932,22.127267072966106,-29.589351639329916
7500.0,3.6039053816865936,13.344083147295487,-1.707145172204417,27.351909949356582,-5.02759645851263,-13.103650163751164
7520.0,-6.162534357631965,7.237927480377825,-0.3016973022020105,-31.521122653768426,-13.199632199621844,29.481113143413683
7540.0,7.330959634984364,16.15819786973404,5.026954357171145,36.50768690373259,25.88059160770968,18.104116776132358
7560.0,-6.326479640524359,3.8121263415563895,-4.408586014462732,-29.197099109844654,-18.14389849716285,-23.31430668871246
7580.0,3.5154196203751518,11.130289825947576,-0.37138351162951666,21.025467728876787,11.845820539412978,-19.56389765337665
7600.0,0.21663178506891012,10.698406588680513,2.6965679556902415,-6.85934042577954,9.842141186378726,20.604376405349726
7620.0,-3.6989058986619407,10.94857730711198,-1.5209975983342148,-3.234502180390374,-25.180094105397195,20.243930012179053
7640.0,5.0562785082713715,11.265291553070792,2.0714405618951655,18.644522142599474,23.44551882632339,-15.788894855744628
7660.0,-4.897276256664204,3.690578983710041,-3.0134022610027187,-29.448385695227895,-10.042246317793635,-26.70211234206522
7680.0,3.1076270060514948,15.642813469944382,-0.6577853864184291,32.61682623810811,-9.513108413639221,13.68349040363582
7700.0,-1.3934863110102467,7.021962581907736,4.980704573470912,-32.80942789380928,20.114709789717697,26.419178945281278
7720.0,1.0411704724288597,13.527631815490833,-3.6795043679579815,30.341025859637,-22.597558644162955,-10.196530807237387
7740.0,-1.5514682782337617,4.166644845404859,-0.5572276838919685,-24.873373171873244,11.414101098867514,-32.687590187771754
7760.0,2.581527062551319,12.262332438303886,1.009701207413387,13.733237456113532,6.20496664770973,5.530456202124739
7780.0,-2.4505569377705863,12.2164448957648,-1.202240897994385,-0.02441667454257923,-23.886782289457365,30.878634695674094
7800.0,1.713210035672549,8.066133325583957,3.111882849278926,-10.457281945056044,21.953403845503896,0.30478762514500923
7820.0,1.0236977674864915,10.481937742326128,-3.8212627025042085,23.850763922722585,-13.829748874740169,-29.906920703354185
7840.0,-4.471539802122464,5.363248074846637,-0.7206531788163554,-28.97757134211123,-5.361154764608136,-4.198735207676357
7860.0,6.725486486055264,17.42760109716549,4.801504657779536,32.765573038668215,23.257841612952298,30.425375419573985
7880.0,-7.10107818605527,5.489331968049642,-2.796077649861114,-36.31221891690348,-23.228261922894855,8.303243696593068
7900.0,5.541167200628565,11.464273136371483,-0.14869434778296492,29.347656489972184,14.976206379053503,-29.147064973018487
7920.0,-2.140741311207347,5.852521869699306,-0.48328548398166654,-17.65516954953108,2.5338092883608585,-9.870276845600722
7940.0,-1.5317494614419243,12.827213624374846,-1.0538393477072796,10.027308594665994,-16.86738681079337,23.965085475125903
7960.0,3.864511755262586,12.15861050167801,4.4226442546389695,8.921477500309797,23.61615174815593,12.75530676333938
7980.0,-4.267866331922063,5.058895520770403,-3.9859969070217676,-15.819392061124923,-17.886799977724053,-25.296890587719105
8000.0,3.7751304235422065,11.881208585202115,-1.1052496377322385,26.81238015649182,4.654992934389854,-19.099981434445002
8020.0,-2.162868265667302,6.912461068064984,3.944775549271961,-30.730177645861616,16.896690123971542,22.662207074210166
8040.0,1.7821620332912704,16.58701835534672,-2.040668819471177,34.5746218408433,-25.802609620628875,21.869164195714063
8060.0,-2.00190037790846,3.7227629035015735,1.2041939877165992,-30.9013880768924,21.91729822841661,-16.717156666871904
8080.0,2.51268711669557,10.628017677028495,-1.7297451584202848,22.091132967833474,-3.519874722132161,-26.27315400163769
8100.0,-3.1736945136935963,9.04424724864552,-0.7142043466353802,-12.911252043908021,-16.48379378560206,16.03632159175669
8120.0,3.066509293630978,12.139045297567204,5.178296359999028,-1.0748851646159165,25.11094377387862,28.778977357981834
8140.0,-0.8771765798524304,10.385286656366286,-3.696798117659875,10.01482618949679,-22.424180293051673,-9.84743408317096
8160.0,-2.5494402558450897,4.105778148433891,-1.210610981114021,-24.629259947250482,5.0495213950646285,-24.638433901654285
8180.0,5.905017741243693,14.630754554326815,2.223129102360252,32.728817488547,13.667768146769564,10.236258573104987
8200.0,-7.263080173718249,7.257610983490283,-1.387791882840285,-35.20059437066553,-22.824533063092005,30.842915854555212
8220.0,6.946599768750926,14.441991552443866,2.684784631934685,32.48566602011326,21.916852379196364,-3.7502563696313866
8240.0,-4.885044173576443,3.2983797192846986,-2.6434146969636285,-26.815052455024,-10.02573511108437,-30.324382413532376
8260.0,0.835869085115096,11.7811599808488,-1.4879425996749203,19.634915378357004,-12.026512145018883,-0.5110511547389778
8280.0,2.119491099621695,11.461790093515832,5.130638218420149,-4.7206624508218615,20.71440100905606,30.035671373071686
8300.0,-3.7757840407532917,9.378755607110898,-2.941377415529294,-7.059559986496293,-23.301433795620163,6.805319650255974
8320.0,3.4646612333663427,9.995839649383685,-0.506347190232334,17.486292374609803,9.659496504735628,-26.52804222817801
8340.0,-2.7088400191882642,4.434750929897708,0.4922766405155491,-32.273663814265944,3.2969973741698135,-10.797882301437223
8360.0,1.5204100541789272,16.97397974619013,-1.2057861952314985,32.56054778849369,-25.41443745459212,28.78656703402441
8380.0,-1.639229816858822,5.971972959605229,4.099574365641394,-31.595393471922907,25.964023061142594,13.256472477609366
8400.0,2.3842066555003756,12.027477976825821,-3.4557197343059443,28.69978364609474,-8.268074132173675,-25.558812301899827
8420.0,-3.576503886251536,5.302602266679856,-1.9471203479814823,-19.116537471151418,-7.054131175988359,-18.75589248019076
8440.0,3.694511824411135,13.344875879535735,4.335836271126841,10.765221386065424,18.139939668439816,24.529456324252823
8460.0,-2.834582864385267,11.999695631693365,-1.7144980607753895,-0.791740148649225,-23.465100593906886,20.66129484921031
8480.0,-0.25375409371893376,5.932279186749771,0.014421446789241288,-16.011669450351445,12.81126191901566,-24.82621604342744
8500.0,3.7260031788777597,11.29972256975814,-1.0988280724642205,26.064120837499537,2.495038006004032,-21.53029208136874
8520.0,-6.417454289249114,6.631733978307091,-1.7444194033530525,-31.8090348464336,-20.859847057118955,19.46401723367348
8540.0,7.61205536159337,17.063601199180077,5.242089574636075,36.787333790774056,25.020557399776216,23.243606101348742
8560.0,-6.590108818374802,3.928318047198662,-3.0127090784574975,-34.78150668117375,-13.028449017381117,-11.513541993437055
8580.0,3.125011559346867,11.176381808098297,-1.9988844087896516,28.52235632288506,-1.8684511959721872,-26.171669262580508
8600.0,-0.13375536573770527,7.989239033849592,3.147323248727365,-16.599233602782316,19.281118342361307,5.896114591624073
8620.0,-2.36979893183881,13.1850785237463,-1.399244459995494,2.5070974243196096,-26.517482900934798,27.957771000915574
8640.0,3.1690144897311168,10.71042556554477,2.232892346446203,10.413509190871663,13.660024016958104,-5.101020660983176
8660.0,-2.9430449075875393,4.165080170837492,-2.019603769319581,-21.36714148775695,1.8392515283788053,-28.540247803280028
8680.0,1.9570475527937345,14.069508225733085,-2.300664722484956,29.93049494879429,-18.070312976668514,-2.1898304872348144
8700.0,-1.304938226534164,7.2945229032269285,5.268254492863898,-35.4982798443313,23.771697850932796,29.90537245717795
8720.0,1.7933845686837728,15.04709016818392,-2.4258529065277488,34.949847720832686,-17.82997412615991,2.3283070942344453
8740.0,-3.6604729999556422,3.02936875352457,-1.8308764773017636,-34.48266717447116,4.7817416705690645,-30.200018195681388
8760.0,4.69565692931379,12.185842203180158,1.2644586085753602,22.235471556671794,17.90684398637003,-11.48286926143243
8780.0,-4.623780849210799,10.844705095473147,-1.3235722019008473,-8.57570371856859,-22.471020599189117,26.565570331292104
8800.0,2.305163774751028,10.431725285504102,3.568156839084704,-0.06884016017611172,20.220850492198863,13.309495429216575
8820.0,1.3308819109674557,10.044435052248183,-2.1095256368869837,12.637191094434048,-8.018161508996844,-24.573682751951118
8840.0,-5.1562142601335115,4.699531720410873,-2.968825771399543,-26.380793230780377,-15.355952096213676,-14.16628866593213
8860.0,7.335382290295362,16.509502823074136,4.807447985211035,31.320941123977068,25.17671022244483,21.667875846427055
8880.0,-7.16831881190722,6.6752837308499196,-1.9441550544142927,-34.25271259019229,-25.60601752019044,22.23172980063167
8900.0,4.916622875211719,12.825131362538253,-0.3878951772237549,34.63302390925336,8.174991481019493,-22.086461451077703
8920.0,-1.9477736819633933,4.246766425155558,-0.11745719384427677,-24.407203154129604,13.371472889930175,-22.16316203098694
8940.0,-0.6846894227081299,13.355288554724199,-1.611416558391495,18.210967442400026,-20.754092469451514,16.52275572982353
8960.0,2.2621053648778684,11.795539260964384,5.017347966919293,-3.0929321556444056,26.09671421665821,26.081232982807425
8980.0,-2.3934858254259166,6.94593201349721,-2.2262387879657974,-9.910931187685431,-6.053324476882006,-13.71543098060583
9000.0,1.7743816192426056,10.46285766924073,-3.2063004216434785,24.193518966060665,-7.85662199260723,-29.12531613673343
9020.0,-1.0811551540433095,6.517608218090465,3.7636700498542077,-29.56427249087699,22.148266460123754,9.191424312698368
9040.0,1.2016504832383106,17.330360087629437,-1.4300696460501274,36.15293862981281,-27.493746737379404,30.444024771122297
9060.0,-3.130990233340782,4.337769414054106,1.2652762439565426,-33.36091892809106,10.969257985739567,-6.034905251976893
9080.0,4.5533651902021015,11.900796981673121,-1.1464223880591198,25.477605400815996,9.916442481870789,-25.13560065721482
9100.0,-5.353899379799762,6.712794167987206,-3.045620251011498,-21.33635123864105,-21.8974398168527,1.5593004126085432
9120.0,4.238513891297168,13.690051452174409,5.503398055082929,8.809095063778294,26.265652871126857,28.779199257925
9140.0,-1.057613443646934,10.72216499187615,-1.788319871434763,2.803827819541919,-14.950767029917175,0.23030065013007306
9160.0,-2.5531624517782676,5.142173487400106,-2.589914306056026,-14.910547484674657,-7.209452362102837,-30.506747877012586
9180.0,5.77372593314009,12.983250312483522,2.234626225743002,28.388819612422953,18.21300815631372,-9.648126717523336
9200.0,-7.336453338118665,7.439754977528908,-1.6599774238425453,-30.762910952369268,-26.785177232607968,29.817819987930736
9220.0,5.955068702716087,16.184962310493148,2.9983579487276337,34.96343685123356,13.569378034573923,8.504665591926013
9240.0,-3.7976558906244815,2.9118226901691147,-1.334196568962888,-29.983146264181055,0.504216172055074,-29.586122653701633
9260.0,0.8686754836560299,12.095341069819625,-3.7417785732656164,20.58510006281902,-20.551223674887453,-15.312243367878814
9280.0,1.253931077265674,10.047464527108623,5.2310150347316124,-14.788947206508444,27.188384875788074,25.578877089694327
9300.0,-1.5154207346147126,11.74803310115858,-0.7393815118065785,0.9995064464579368,-16.422513372061154,16.4955830852362
9320.0,1.437138176165887,9.595936155361986,-1.6788222043644925,6.028687768569108,1.6465689971869133,-25.074205161198915
9340.0,-0.7697171111030514,5.01688058494004,0.9219173586312409,-25.933116995231245,17.794098000122563,-22.57105041825429
9360.0,1.1639621203971562,15.767154652128884,-2.519866259563919,31.739833667193043,-23.669870419525353,18.071457242134667
9380.0,-2.251341167472893,6.521952778033548,4.452191195796209,-35.281424876373016,20.57286578143979,24.91940402468403
9400.0,4.123896686002291,13.39798948658429,-1.107530736403844,32.59500965310692,-2.4843114300227476,-14.994792897826713
9420.0,-5.6224749751544,3.228267302487148,-3.67036116494016,-31.236818046019398,-19.128203847415676,-24.943316821642696
9440.0,5.351898443801266,13.626683484675834,3.8309872078026985,22.993115722271913,27.432787384602133,9.78404085005952
9460.0,-3.6201538021139674,11.178724520754898,-1.052153194349774,-6.934110216026623,-17.479767326911528,29.799567897407837
9480.0,0.04151001487393603,8.159318787857469,0.1443869830834358,-2.0049386043327653,4.844378359599317,-3.173159854767092
9500.0,4.128747941466257,9.585630921450964,-0.27986386146326697,17.885346954123168,13.823326947576726,-27.096423502900464
9520.0,-6.650233339479984,6.160903241368739,-3.2521165548800623,-24.693444377244884,-23.088409890127185,2.249054224516718
9540.0,6.7078731283423885,16.653210515188007,5.240167595817788,32.8326392200157,24.303048028478624,31.257787233473664
9560.0,-5.322716571453565,4.817311082294445,-0.7558983468843179,-34.82865736119345,-7.9106316069579,1.497307718878515
9580.0,2.981950110448195,11.96145382050215,-3.629686804109098,34.54328055204634,-7.070890241790322,-29.30406605596703
9600.0,-0.5922934944716467,5.904189467684615,2.697004067472944,-20.640543054168806,23.947593989852038,-5.148161537701131
9620.0,-1.1638169157346074,14.141247681757934,-1.176163226743209,16.447792409891953,-22.221920670107046,26.557171528463364
9640.0,1.1850890372551453,10.473523355481777,2.1530092768088416,1.5079867738762849,11.792906478821156,12.239233639567445
9660.0,-0.41467888231981614,5.834713453539515,-0.5870839660233507,-13.583887919109706,10.535793265022669,-28.635944314875797
9680.0,0.6875242991901416,11.662439961752291,-4.230743081499227,22.337525829005408,-18.783393416867334,-15.205506733430765
9700.0,-0.9771972431730966,7.1261067248055365,4.977776656573009,-35.05724133151476,23.4220440341561,25.841962084603427
9720.0,2.924857145252367,16.262570518051326,-0.37580530277325663,32.53331461677032,-10.587722202272982,17.99141892272794
9740.0,-5.078707765311698,2.987084427470834,-2.3197187395917136,-39.07737046936791,-6.573455167468765,-27.72985606353408
9760.0,6.253026118966445,11.851135205380965,1.6565607614615392,26.50765330047905,20.34625838438644,-23.15624369075604
9780.0,-5.434187641310493,8.56377287198489,-1.869792236175122,-19.930332448265563,-21.87021993875578,20.097377176880777
9800.0,2.8163675457531356,12.798110315229987,3.4383091026082324,10.541514721602642,12.77543451345975,21.430333055240094
9820.0,1.3755860075474713,9.116536432922262,-0.47000472482897004,5.260147887298794,2.2525218910324663,-14.031956050780607
9840.0,-5.149093658138964,5.018444789846636,-4.582975768921461,-16.456810433500053,-20.656462190848696,-24.955721176717912
9860.0,6.561776468290808,14.707421421792372,4.054073471797932,26.786599476304552,24.50330110603919,14.415083681944779
9880.0,-6.220487803856014,7.718699037328594,-0.08959986264412034,-33.59012290602366,-12.092065054256366,25.776497250781034
9900.0,3.9771337810889213,13.888719219068586,-0.9566284547878038,32.75904888357845,-4.1733851710843535,-11.05815897386913
9920.0,-1.4821915705965805,3.0269138862155174,0.8228843905464291,-36.57288552778432,15.319818884901638,-29.87510481504156
9940.0,-0.0502593193136909,13.919430508728883,-3.256636246512711,24.542094445472102,-27.437401925496957,6.973162417969042
9960.0,0.8302422173700825,10.520833985161651,4.369555202257523,-12.14760222296478,17.794131747835554,30.30641369096765
9980.0,-0.3683490203072213,9.806532162780751,0.004982243835814737,-0.6324086694673053,-1.9134332223818322,2.0638150331183795
