timestamp,ax,ay,az,gx,gy,gz
0.0,-0.12546819539715864,9.739468147511307,0.08412072676644139,-0.5978112490250783,0.8994544808993972,0.31032754574411536
20.0,-0.42964355223100414,9.49796608804519,-4.183905517903601,12.393982002048663,-18.056148174080835,-27.794387508521528
40.0,-0.27530988933940437,5.960893505193992,3.3228670664022335,-24.230165245533854,25.67746094108083,-3.3553704209920836
60.0,1.9150821061025003,16.619156990164225,-0.31442075616173676,32.01569142214561,-14.661633480137436,26.271346311415076
80.0,-4.136611620097462,5.853013500328072,0.9248320957997759,-34.51764887728947,3.1863217246545226,9.403147294987463
100.0,5.881203775436584,12.149264196845051,0.12712157386382256,35.69050996918686,12.983960460344354,-29.2528532990666
120.0,-6.645072430545538,4.689715241590536,-4.246769151285255,-28.103696357391435,-20.58333770827154,-11.329136684466638
140.0,4.595724895227098,14.673231239611667,3.8534548327710723,17.36595468125478,22.57414160606285,26.399685977901893
160.0,-1.1657486096387224,10.185050464056216,0.5529417407997748,-4.412662597850615,-7.626235000964113,14.466289572654931
180.0,-2.300185004322014,6.793487185317914,-3.0718672724296456,-4.380412434800398,-15.174604351359068,-19.233207418941753
200.0,5.408084014792016,10.983368662343045,2.1650737765775228,18.494210866995896,25.326826703878307,-19.91980752060345
220.0,-6.593965100952991,7.20381335530624,-1.2895854632290615,-28.165405184920775,-20.8035053073325,24.138028874492758
240.0,5.551399225202241,16.639895111635656,2.82332716884363,34.29284476898551,6.967229318300475,23.08280210930238
260.0,-3.0141948562851213,3.3249066095889295,0.8106673518199281,-38.31951036116353,14.855909958665407,-19.090938393632356
280.0,0.9962873311402396,12.313097589085013,-5.044459894722012,32.63835945089431,-25.56958917356875,-24.923466391892397
300.0,0.04889148402599702,7.580409214076147,4.296512661862089,-24.40583236916833,23.867517796526393,15.155493838339604
320.0,0.2119234736919564,13.43486303445573,0.8200433364998991,13.153789828612322,-10.123272998571283,28.95217648384693
340.0,-1.0813136090140858,9.379492457317076,-1.8353539657689109,-0.5284388043257713,-8.917788438669989,-11.188445113841432
360.0,0.9725741529546394,5.031102856472546,1.1305750775175656,-14.399523227885888,22.279406000022995,-29.565601319062054
380.0,0.5322010554862059,13.554205820863277,-2.7810072462218844,23.503974308257494,-24.28821599551323,4.162789400752678
400.0,-2.4758107403653296,7.968652890392265,3.6838469307199415,-34.98734526613961,12.659776861367318,31.616702789456784
420.0,5.268259137373333,14.768033527932888,1.2871329781247574,35.23737586433996,8.38131944843448,-2.738191220822433
440.0,-6.863431463651662,2.16433941196647,-5.28105412374475,-35.82960928368117,-23.333737070925135,-30.37166473635677
460.0,6.189838405496882,13.410907491270697,3.531050332783801,23.413405637047028,25.457904628359856,-2.010160690777725
480.0,-3.781160003858369,10.052055246375687,0.18320974701905604,-15.451663356522864,-16.275119913147105,29.6851482193368
500.0,-0.04414271742362802,11.226356822377344,-0.11778812889737024,6.607795900537688,-3.4285684722459697,6.396667155379058
520.0,3.400671270792331,8.301709092606938,1.2731417053370362,5.721960898831217,21.80635528804699,-27.624420669866026
540.0,-5.854479537613088,6.640578393479023,-4.192442215758854,-19.855202096345447,-24.125584243710655,-11.769545512745381
560.0,5.234200898137024,16.494431822591338,4.180219569730261,26.86317329698117,15.132085710224162,29.257290252821992
580.0,-3.787610670603397,6.247636896483838,1.4054219812304978,-33.76676535046263,0.8487849808454826,14.17646089309778
600.0,2.043097600178927,12.968766364937995,-4.291922538333274,37.957818779371316,-18.755388695423218,-25.101111949518828
620.0,-1.0119021778715143,4.203975386945093,2.2958535017383794,-33.743015476421064,23.718408932617283,-14.032794966882513
640.0,0.7532158971215495,14.97239485701531,-1.01173680684809,20.0246294298611,-17.749073797200428,23.415310596297473
660.0,-1.5235094681731178,9.914339372252588,1.3886315859808205,-9.801457104979518,-0.7055559423711485,19.805032454438628
680.0,1.6094858870981483,7.665792393333766,1.0287201393163448,-4.31162292130187,15.478805736412488,-18.961534383334172
700.0,-1.0774369557369123,9.882210517500297,-5.806328758767227,11.735769138067468,-26.589637249477946,-20.248082777179825
720.0,-0.9446136908217027,7.854246990000007,3.326685968949615,-22.758712895188104,21.747386443395236,15.093096289605077
740.0,3.6400934997119276,16.766166021681293,1.6273210082911491,32.85779253472637,-0.7259265129946266,27.269096516314864
760.0,-6.062290190597741,3.596045329888564,-3.126547071465841,-35.052849137963456,-13.990077507948701,-15.088859987478457
780.0,7.23370566104544,12.327893813178505,1.4609201495732345,31.44932682173606,24.25248173925073,-26.77020227633572
800.0,-5.67732307506368,6.588786298560743,-2.545783076101296,-24.213523653364984,-22.14721793892978,6.072239888912142
820.0,2.6218364097516265,14.664341969235949,2.556332147786877,13.958415312892114,5.25841168192706,28.372362716783343
840.0,1.081412948808929,8.843215716226924,1.7673235427559029,-0.8007273056691906,14.527918361118056,-3.6717162141400155
860.0,-3.832417272474437,5.899487663902945,-5.047062786857162,-9.569705671934235,-20.72120433746749,-33.142312586403264
880.0,5.348216852631871,12.746504834046185,2.9289303862694247,21.417258822889053,15.467805886830504,1.9296893406512692
900.0,-4.383836133957288,8.18008858980241,0.9899449816991843,-28.63421756340754,-6.970851803320697,31.256787316484594
920.0,2.596338497640734,14.89075606186253,-1.0692952621607665,35.514266838265286,-13.765343212801394,6.213632876599174
940.0,-1.5890631837716684,2.267623023646427,1.1045199620557424,-34.22240249431572,24.235200991215248,-31.037791873047503
960.0,1.282157156855505,13.263073950507152,-3.4171591263634333,32.232841824691285,-19.40579172352347,-9.42552578806165
980.0,-1.6932931436667855,9.02763576577189,3.2821765224602735,-21.899844139324284,7.136386277965272,32.02697945103645
1000.0,2.593075345677681,12.25803592038872,2.5145602688517057,8.916686912757244,8.433607052073437,12.279505560653357
1020.0,-2.250959603079302,8.168796308345398,-4.935638391122685,1.0809119035670625,-20.952300081941484,-26.282227275776847
1040.0,0.669124690417092,6.184871030158811,2.265133614861317,-15.656465763182588,28.6858585635689,-16.91613441227839
1060.0,1.9136685741581139,15.65308738923333,-0.1907176262530394,22.926810081810274,-15.42696056304985,23.465076469411525
1080.0,-5.050670833347328,7.018764337108781,0.5364529364080952,-28.45881769316633,-9.711199103494938,20.546047499051053
1100.0,7.241533321573104,13.131094098413291,1.9993222160580295,30.134661300818856,20.945169521638206,-20.44760172899827
1120.0,-6.727988312578073,3.340979895144194,-5.010724404173321,-31.578725007487932,-24.115923359982702,-26.808681677015556
1140.0,5.072167768103598,14.858887115953014,2.98068223747828,26.87390773423798,11.893398813039834,16.803759205857226
1160.0,-1.575321179135206,9.647442727294221,2.6292466083500634,-18.357057961255787,8.247260937953614,26.322825451926843
1180.0,-2.1039048179152395,9.051036203907449,-3.6102814533009435,0.5145444669333994,-19.6396201191418,-13.633638310350598
1200.0,4.494131773837299,8.888596945107096,1.6109084748191524,8.535991920637391,27.60504739782912,-28.2022708413746
1220.0,-4.298783468422297,7.659955934950855,-1.4258051131761973,-23.5631468602604,-13.232543430791042,6.352526290583094
1240.0,3.925833077934532,16.591772035012305,1.5103337062527666,31.742625319265322,-1.4203614639158904,27.782656413591766
1260.0,-1.977643609220616,4.646685037376776,2.15363240666465,-33.72853749538293,18.55002038310773,-4.171474893780036
1280.0,1.4415642760771863,12.207163559732022,-5.532140423857506,30.318968219822317,-24.974392066910113,-29.77960461473844
1300.0,-1.8145595766899965,5.742545246122553,2.2544131169984816,-31.041075630745386,17.076158829818684,1.5035562514496756
1320.0,2.793462778618788,15.43756019365706,1.986810768979099,22.97534652390128,-0.5856609238504407,30.639537320924283
1340.0,-3.1702485888238816,8.753678060005397,-2.01061425135338,-9.540248342266343,-22.043654477476757,5.625665157503966
1360.0,2.600474571455918,6.657273101262508,1.8199294846258185,-1.5849226922140915,26.954274538518646,-28.984308365182958
1380.0,0.20668806682898294,11.686014088226377,-3.53340919405447,17.443915731596633,-18.919785332117232,-10.024143328022431
1400.0,-3.2587355617427636,8.139150550349994,1.7088726158652778,-27.537823295967783,0.9071178316238406,28.661058768569124
1420.0,6.1510595531116765,15.569110923319506,3.0952700528001498,34.024782011820314,11.10435076405248,12.950616841506857
1440.0,-7.493982281278045,2.9364777192030442,-5.380862804350169,-33.89183763375227,-26.909216099512918,-25.656917640372612
1460.0,6.532785795257243,13.22656234337284,1.6995409644605073,34.80929947154349,25.171641192684604,-14.709826583992378
1480.0,-3.6429886343241504,7.808167424285786,1.0877755843474481,-25.55074625289187,-6.772432360456548,26.610170068042695
1500.0,0.07907333366953778,13.443682396639074,-0.8196934939660594,12.041496909278273,-14.355203067995328,17.288202807715937
1520.0,2.762483313142428,8.032873198249577,1.84358473874709,-1.1693909142641008,20.500840541762262,-21.550361921708827
1540.0,-4.043115466229549,6.414519355033634,-4.7622527225262905,-10.27688594730719,-18.180090343103856,-20.57327412992548
1560.0,3.842314932864485,14.909962448772967,2.098092125256088,21.60719307706743,7.764994936685996,16.136609817078053
1580.0,-2.6526866525638377,7.315978160777367,3.529061115159212,-32.384215013194826,12.497926253076498,30.156313957199856
1600.0,1.619679092142648,13.526101218822907,-4.302874758086127,32.42543511004718,-21.722967605062216,-14.444787108856445
1620.0,-1.3559725032383358,2.7203220091931253,1.7597813861552623,-34.230208544712,20.405339841161645,-29.29763963342234
1640.0,2.4763705960613143,14.990998734521938,-0.4998545084759842,30.226700566927754,-9.577456299002067,12.237817499764937
1660.0,-3.6483349137850154,9.397252738892288,0.607395801929891,-17.282723146641995,-7.572528919655965,30.090191945054407
1680.0,3.456759778569496,10.316352414393144,2.861125957626084,7.656722573872601,22.19717225997209,-5.289084350911097
1700.0,-2.239068737607843,8.32934972317808,-5.3036357774025165,4.125844414360525,-25.952533149599248,-28.683451967978247
1720.0,-1.135573536866634,7.400184108036633,1.4520900629161857,-20.822841973620594,13.291487118734931,1.7262679187271364
1740.0,4.552982012093731,16.111019717364474,3.1247293477441644,29.527901805640866,9.998103162634926,27.09154294041269
1760.0,-7.049925851700651,5.189052322525004,-2.7779657799646786,-34.82386318089316,-23.439900218425436,0.05758502137040988
1780.0,7.287605479536962,12.270653080495784,1.1596994573366914,32.07751177863542,25.351173071689505,-29.314432038910322
1800.0,-5.700749549094029,4.823454392885334,-2.2084639543993347,-34.09140408893261,-13.857808867886522,-3.876419726489185
1820.0,2.4196562485726676,15.884450641473764,0.9357753319935561,18.841093587142492,-4.4275449335542865,27.75937130543784
1840.0,0.7089291170048074,9.27663352811398,3.723105867972354,-11.228956835097232,19.720893947647106,10.652278741113713
1860.0,-2.8538194473347067,7.478462608743628,-5.440681757524095,0.04082775859434079,-23.95299037391321,-25.694454347462365
1880.0,3.416882210542281,10.323494112380418,1.0508610130508622,10.498738741651902,13.77591788038404,-10.398440547650104
1900.0,-2.623062232767259,7.963799736206946,1.9201220355253437,-20.693073183320013,4.420358346837737,25.338147621971178
1920.0,1.6076259212498327,15.834658985208016,-1.275641368374116,29.818797468983533,-22.650187767301897,21.27152036311422
1940.0,-1.8098300928079794,2.9327565724601667,1.8532859298140067,-36.75500460375111,25.84052569651072,-22.51071464829017
1960.0,1.9094514898512882,12.637090192196188,-3.991250492981492,31.315435321229142,-15.58347469907841,-21.910411593830794
1980.0,-3.626723935474297,7.450864272902757,1.205326869831587,-28.38574299127697,-7.139263531407465,18.86115510556778
2000.0,4.652794415990683,14.339438699135242,4.266917133928875,16.483014412887048,16.030062481832953,26.129910632517273
2020.0,-3.5657399576812803,7.59205432244341,-4.174467619646701,-8.177532322305357,-24.450434818609367,-13.479129057411743
2040.0,1.2054453849367444,6.514248537782051,0.897223295455988,-5.363408361970156,17.33357555831859,-22.604506520259836
2060.0,1.8997493077755787,13.225383728818434,0.6287962808006651,17.85210214631423,-0.8110296952090525,11.175307059362568
2080.0,-5.346845191525332,7.735250181632739,-0.40528243297355804,-27.44356855607296,-14.531650222025698,25.614254783961037
2100.0,7.023062873204996,13.942988935542466,3.319249422873673,32.85528993708013,27.60837674722005,-4.808369957620043
2120.0,-6.693154186623883,2.02857765930045,-4.932196380560316,-35.48658410777072,-19.874833546809853,-30.190742423969162
2140.0,4.691366088125455,14.648686338741598,0.8445793986935248,29.377696878856682,0.7696212815748482,6.336666962289968
2160.0,-1.373650966710716,9.25962283619199,4.074163878750558,-21.715044459015562,13.74001124170388,29.49512756650018
2180.0,-1.3642368477774327,11.730061949964991,-3.0802105719236152,13.75259721664416,-23.564275893500167,2.880265368170713
2200.0,2.5329722085939337,7.455199017423926,0.9967203607285174,1.9398715551685366,19.460778905026093,-32.82742967422157
2220.0,-2.4276255723879023,7.647208256834548,-1.2983610817805715,-14.488904644675376,-10.090481100273628,-4.630611836109159
2240.0,1.7790429266552823,15.839740219549986,0.4508734402889294,24.979490262029845,-12.468414139011902,27.132920724460746
2260.0,-1.099014518520212,6.380247039386637,3.8758800912780322,-29.415705303827064,24.663750158845136,9.56332832412147
2280.0,1.58355388271434,12.620849080691844,-5.195326281072042,32.21023247723358,-20.072655874545678,-27.38525730448045
2300.0,-3.248878021239067,4.147820180821623,-0.09828051998317866,-35.28537530824375,6.428917096958326,-15.451790841944034
2320.0,4.2324784732593095,15.927084769017279,3.4762267398358024,29.40490563904597,5.569625680551869,24.220147531455602
2340.0,-4.926369941702052,8.55327235712846,-2.181624616434017,-16.505632206700575,-22.971002570823956,16.499603369432364
2360.0,3.475781354094328,8.856196294943445,1.825006170126174,2.264502970242798,24.33313751698277,-22.625031716848472
2380.0,-0.32203165236348474,9.073544304695181,-2.6997088938342766,5.869752428433195,-10.759780471924238,-19.309241885451062
2400.0,-3.4825224702695388,8.556796964896485,0.21816058034037977,-14.710651361038794,-9.907375133365058,22.803162283464438
2420.0,6.31226006461079,16.008174089575977,4.767796616852217,29.580431076774566,22.213937626964906,26.648068783678905
2440.0,-7.195121141392558,3.269478890294777,-4.541078028719911,-36.45856474102867,-25.08054085849724,-18.600997322449167
2460.0,6.055759530507185,12.498422099993268,-0.1798736987447912,33.88823739084488,11.9224396871773,-30.134558474041448
2480.0,-3.1473259092952444,6.136596634842568,1.7796510881445973,-28.68943707099771,5.811440510157646,14.845489430460985
2500.0,0.45429773077412894,15.319648963960661,-0.38627004036622503,20.381107956442467,-19.620162384323343,28.180927285127378
2520.0,1.7381233890364522,7.146336249639561,2.9364577451485605,-11.51824272226035,21.354535803157415,-12.217146642169762
2540.0,-1.9016146638101763,7.335703567067251,-4.0869550873147205,-1.2162895314265691,-16.752232352268635,-31.237013900261807
2560.0,1.3455762815337453,11.878163517028142,0.11166158600357998,12.544262828852018,-1.8100253075819694,5.873937430455355
2580.0,-0.9441818875613552,8.537218393773717,4.400494874775727,-23.68627457354574,18.39897172020067,27.42786478630813
2600.0,1.1398052219354435,14.496409541480759,-3.4171785769413097,35.04936272714263,-21.563358977720995,-1.0305901199081156
2620.0,-2.299835714877379,2.273821613248739,0.3842624067251667,-33.65272711313577,16.10700783406904,-30.77142941807675
2640.0,4.196801200638127,13.930288842247933,-0.00967567041139697,30.955881424316285,-1.208362249328363,-6.762169869954836
2660.0,-5.66123850267908,8.547137234220664,-0.6440617981093602,-24.891858723250962,-16.30133396973944,29.781469709626418
2680.0,4.936674439460784,12.865108263868553,4.183651667601136,16.554964039175438,25.762195636849047,9.757639285881655
2700.0,-2.9372007348458378,6.59187864150509,-4.817347375828462,-3.1812588744896084,-21.232565270246067,-28.5127347117246
2720.0,-0.7216382614720732,7.568290840064946,-0.9154942243679121,-8.998025959947874,2.964283438789911,-12.576953201538938
2740.0,4.564159899323901,15.063253452955749,3.5391104946141487,22.464153809272066,11.269206139513624,27.451083159447734
2760.0,-6.913222118817673,6.84054683187572,-2.492599721061744,-29.554238181019354,-22.87938890827304,16.64514572421579
2780.0,6.4123950860828245,12.949569374359559,1.3151524484554902,36.82760974861663,14.930379778736103,-22.81122229375456
2800.0,-4.807685122804002,3.447697228765989,-1.9930598611773602,-34.13681615194967,-4.9629328357995375,-19.683869446005872
2820.0,2.473256574190386,15.806864167459223,-0.7227645361882011,30.7526767791462,-13.871025763469849,26.08841295901236
2840.0,0.22510212794350853,8.781265499112541,5.08538079199354,-21.845708580293902,22.107549941175574,24.161957580972544
2860.0,-1.2334135986948422,9.811420368320302,-4.225662491613497,9.909137663062811,-25.4005923142653,-17.139463125322738
2880.0,1.1294611622184842,8.16537630590996,-0.3824981688172791,2.577419944300795,6.010831056656688,-22.71628786194475
2900.0,-0.331901060537674,8.886998506188982,2.8757268409966765,-17.67783132114502,12.838234929594135,18.467818512448964
2920.0,0.26185783073409186,15.754477783056304,-1.464700625183188,27.542634648659195,-23.068975130298032,25.992685652486934
2940.0,-1.6178866044757105,4.419337260587057,2.349514630307926,-34.42310590398123,23.346454473468583,-10.922765829304058
2960.0,3.0361232028761647,12.178584509918757,-3.1516682662138544,34.1475477772484,-12.531533107506247,-29.82468620930679
2980.0,-5.598314789175945,5.37848313766186,-1.1038203156397395,-32.76033499908567,-6.571105121022375,8.24741376479169
3000.0,6.094280935576088,15.952660521439002,5.135518956135594,27.520753537894084,27.19771242246349,27.676750317941863
3020.0,-4.800799179242893,7.47765015843202,-3.2440870332484213,-19.14322112655114,-25.049937830543065,-0.7603023789578287
3040.0,1.7073156465013115,7.736480731471698,-0.5699314473772333,1.147108276303537,10.086403093593411,-30.202217105913135
3060.0,2.0821096908047174,10.84133531685373,1.1528148234486024,10.889450776762608,10.986590117833437,-1.4355520836277074
3080.0,-5.278688366186216,9.15303544267556,-1.135224401771553,-22.152369904968193,-22.391470498589044,30.671625598166784
3100.0,6.604498900778152,14.607468456817685,3.930464705301977,26.899867336990877,24.26396092803427,6.571063178232538
3120.0,-6.199675929492449,2.6720952525559167,-3.9394249749499415,-34.27389071318821,-11.59094570403776,-28.07784401721576
3140.0,3.6512091076043083,13.99565903948586,-1.675515889817508,35.93276516477494,-2.070654641116657,-13.475742230758929
3160.0,-1.1381699978655686,7.908257667872396,4.580396101962665,-29.448723853823424,20.642591754610017,29.885540259924174
3180.0,-0.09034158352817098,14.303284900227084,-2.499148782906807,19.559485551111152,-22.336261333157083,15.417729841756065
3200.0,0.9459980087760216,6.290370803531984,0.48643945440298003,-9.707583121401163,17.748671907151227,-25.647012978654786
3220.0,-0.2773616281772193,7.740071371920903,-0.6783123565092252,-0.6661849874188,3.7771275147700134,-19.09488656507369
3240.0,-0.2357041608069112,13.519015215621021,-1.329531246643454,14.729799507553045,-20.602709013773346,21.640457433194037
3260.0,-0.49391690360218965,7.7867243348834965,4.741478618649951,-24.975906197934844,26.8004829538737,23.91236334160388
3280.0,2.1181096445529954,12.917687964611787,-3.474853662745426,33.962345652147555,-14.66212405512763,-18.767810347508927
3300.0,-4.67808151365992,2.81869034887737,-1.58139126593077,-35.530721420442404,-2.507906365875538,-24.455816758729288
3320.0,6.007224674781971,15.59700907633685,3.6847043446252012,34.37477754547076,14.736422331251081,13.434340639562578
3340.0,-6.09924191291694,8.528606229932477,-1.5872520572081568,-26.38177838989961,-25.11322995506904,25.343143836275086
3360.0,4.019765488918674,10.808436486585274,1.7871933388040062,13.127937159142235,19.37235369826216,-13.901664634526409
3380.0,-0.4335260640944341,7.0041483798384965,-1.886924392999364,0.7905870280779201,-1.867418815632201,-27.303260295804602
3400.0,-3.2909926414961554,8.9567367664398,-2.079529018014313,-11.339031982908857,-15.948399674059273,9.897833744804426
3420.0,5.936480198846703,15.344131291328294,5.186638723108794,24.764822767491484,21.976261059597082,37.07161684420215
3440.0,-6.050629426086387,5.1720341633461455,-2.9558740259289364,-30.571647133469323,-17.798858030183677,-3.2892563891519
3460.0,4.667456814832032,12.781234214940456,-1.456412465781994,31.491863126255538,6.158929232066226,-31.25043877092968
3480.0,-2.926526153625098,4.545010840178463,2.080830022125764,-36.77636379058593,16.66888300967752,-4.601240360394716
3500.0,0.8717869918334189,16.06695135663678,-1.3017689094630263,24.92836753487813,-24.330051509608147,32.303093233170706
3520.0,-0.08005151277610736,7.2222094175819835,3.577391363099589,-21.41421840781345,21.519282144305098,4.111032107740456
3540.0,0.05685909512523038,8.667811912853608,-2.623504711044025,5.359160155477689,-8.456958347011007,-28.192280803041935
3560.0,-0.6425000199455551,9.871050484362222,-2.423150420792747,8.952352081919656,-13.897073989625966,-11.859006247175943
3580.0,0.5275073899518995,9.711001682714064,4.997859876327257,-16.412785073689488,24.83887824144936,26.19837919999505
3600.0,0.5657656603376269,15.172893150067587,-1.7482595428190677,24.153023096451747,-24.065049459525664,14.74987957101783
3620.0,-3.5415543936145846,2.948564725885274,-0.49419384794030524,-38.02262114988443,11.026379055889207,-26.33343618705985
3640.0,5.717849648608173,13.419730502752255,0.2800182855990292,33.79969818526324,7.341387703545344,-17.824583644350078
3660.0,-7.196353934499797,7.366554706017983,-1.203131349379453,-31.23379680750328,-26.374464148416415,21.95593167061556
3680.0,6.05308879427776,14.75337173891818,4.821203366991316,24.633723562352586,26.60592169101721,18.49688209376904
3700.0,-2.7732957178824207,6.078850104018792,-2.7225314361212165,-14.01135095801945,-10.926977894383569,-18.2916620778934
3720.0,-1.0670578943603701,7.7888736626889035,-2.471383740766836,5.673134177046787,-5.653098605177045,-23.094331551874944
3740.0,4.07849271387385,12.792928548824639,4.320042800618117,10.99726561690229,21.927283376118087,15.041602588090537
3760.0,-5.807410443328644,9.050684449932637,-1.8115221632542198,-22.349831244243596,-23.127132609847603,24.63221613367439
3780.0,5.395198191524586,13.1616798183736,0.725708952181146,31.415410553279358,10.569711440542473,-14.137362626485787
3800.0,-3.807125024901169,2.688192342833596,-1.3212209772134924,-33.428164232441695,5.716345176903642,-27.664927261314524
3820.0,1.927437898700118,15.563012819564207,-2.324214795383089,35.363017430708105,-18.99120971797699,5.504869706993848
3840.0,-0.8824157114085398,8.31605925736107,5.412548752668089,-27.789691529743074,25.287647251985973,26.4785325148193
3860.0,0.7866639436426553,12.344144829910569,-2.7440922671735706,17.435100181518486,-16.33869387502756,-6.115039089579922
3880.0,-1.4745541081653168,6.535412870910377,-2.1707662420684,-8.55568014756666,-4.296588080697426,-28.535982528383183
3900.0,1.8223591013832836,8.968328859889176,2.6079562552675646,-3.2201952899549586,18.4606926123096,1.249063807437425
3920.0,-0.665942791725993,14.704192810492003,-1.8756356333480857,19.60048032512419,-27.706024166995096,31.901690097390414
3940.0,-1.4799964816048685,5.785675169420348,2.7098797394302587,-25.907187274675014,16.52086285782501,2.2495358438998756
3960.0,4.502045895811871,11.994621437717763,-1.97634398427497,33.474999703956314,0.043941199121289354,-32.29674459837816
3980.0,-6.9108025504033,4.452836265825264,-2.7691124922502293,-33.82237191188671,-17.45938709101408,-11.894190910076965
4000.0,6.80751033548407,16.775101328040073,5.566176004542544,34.353205651276475,27.13552781037651,28.34474734868998
4020.0,-5.155621440175366,7.734312665190223,-1.8560151975584065,-23.397401867373425,-22.28894218606264,8.803357217460345
4040.0,2.0438406381444487,9.092528918072928,-1.6283605845446476,11.944633094975039,1.3117937803146111,-22.24607581828492
4060.0,1.7096772954190893,8.288111144619693,1.2941509534643458,1.1382309380353455,15.872582043465856,-15.366022190628808
4080.0,-4.687162034734231,10.109730141157524,-1.7941171092757884,-11.503663201660428,-25.093294646852712,29.46819023552993
4100.0,5.795335906355577,14.84493384203408,4.173048235935924,25.856147303783402,19.147791821253357,19.957717274228795
4120.0,-4.624802546102876,3.2084389762760623,-2.182740375610363,-31.896321705764745,-5.823515528550166,-19.290127586964143
4140.0,2.658335728116524,13.081569089685715,-3.6682852283401233,34.2661944443292,-19.81320530480582,-26.600965651643776
4160.0,-0.8876582084202624,6.344821252231359,4.393851009571362,-34.32633667183979,22.533295586605025,16.950653677389703
4180.0,1.1628207227579677,15.708754127822816,-1.7035262181204458,29.397073776890963,-18.6040398523472,24.96829447981924
4200.0,-1.2328930470083228,5.838520756618267,0.16817878973855122,-17.597826020565968,8.67978564690392,-15.956663373761792
4220.0,2.2368951461086315,8.517223362186328,-0.11980735664628074,5.0906182953265455,12.063007175320292,-30.28751772067834
4240.0,-1.9060701227516739,11.8450672652752,-2.722249425793872,4.814041975701969,-22.263254606320636,14.129732172742829
4260.0,0.14075963598719549,9.729163396509248,5.1697899027351175,-17.10058003044553,25.887895766080437,30.43715930243811
4280.0,2.5676859662438374,13.104553375289786,-1.6010240137649556,27.339903044276745,-6.624102696758047,-5.736984736651039
4300.0,-5.453895541109693,2.48130670555074,-3.4912030410303716,-32.01751283104798,-7.728375179999043,-32.50721501748917
4320.0,7.652169529369722,15.043229106688086,3.283729838757384,33.91017328631395,23.682871340688816,0.6432083892549063
4340.0,-6.581345410282551,8.093091209849032,-1.3879662504395736,-30.81772225839703,-25.206842028251273,28.128542099791655
4360.0,4.147495851439841,13.228562194235174,1.5075178855648803,22.198399475279846,10.320811234213272,1.9738416675102248
4380.0,-0.24835029088502597,5.79466599549287,-0.8027087065130534,-11.102427826378939,10.415626691899542,-29.12839546909786
4400.0,-2.841804167889125,9.25294691779134,-3.654663203098122,-3.9074131644696526,-24.576910096668616,-4.382641372480811
4420.0,5.007520906334255,14.334274496904818,5.305578661063636,13.016061615082752,21.847389239473056,29.042502872568054
4440.0,-4.975142333859449,7.006846984808725,-1.1184564880505037,-26.585395842351126,-15.922686208029358,11.342021702710563
4460.0,3.0821372504040214,12.019277145545326,-2.869459753726394,32.3784394629403,-6.238526512197808,-27.207773498567718
4480.0,-2.0355384042871005,3.4635496663961023,1.9871193016994357,-34.32287390626058,25.802375068986617,-17.126788522969996
4500.0,1.370957539151639,16.936874048336755,-1.6953617523599356,33.590270834192985,-22.08940401497388,21.473018306094097
4520.0,-1.6501624315638557,7.43065994950495,3.3135631662084157,-29.056351514778783,10.775689802457691,20.912763311257667
4540.0,2.5477367320594855,10.067502659812291,-1.0842848472401672,15.5469988247059,1.2411766976745433,-24.106334284588094
4560.0,-2.81833499469783,7.146857412477722,-3.846655906098753,-3.559061831067406,-17.758367366616625,-23.025278481884474
4580.0,1.821300039509585,9.959225463471357,4.913930482231384,-10.54797003247839,20.332197556794952,17.682785887929715
4600.0,0.3149900350246619,14.352455024417928,-0.3786045998805632,20.476447155249133,-17.056066075005138,23.157595485619257
4620.0,-3.571539337879692,4.210631968057915,-0.9775270078232067,-27.763961097492366,0.5642748164092071,-17.382977501581745
4640.0,6.942562855226952,12.528932588833438,0.9459028494118225,30.916089080021877,17.748804635545156,-23.926517188271927
4660.0,-7.387342214715209,5.8505266099067885,-2.619393591170536,-32.66663472488215,-24.32149975470133,13.082790856009447
4680.0,6.23488353977484,16.49425763645416,4.48100046801135,27.789982381692475,19.866009829137163,29.401182875295206
4700.0,-2.733889914920348,5.8652788797735615,-0.6415630758960431,-24.465275000453286,1.4352796100177458,-10.023600361763854
4720.0,-0.7856524421408075,8.770362369971837,-4.496044800381465,11.443627515583664,-17.32132482832526,-29.16921959257929
4740.0,3.384322935749463,10.41448972452786,3.468454359881735,4.459968343998453,22.559249183686976,5.211222364715462
4760.0,-4.131550395918529,10.119608966923343,-1.056225540196637,-12.781289389646616,-22.153991816511812,30.005483202231577
4780.0,3.868693216494942,13.420517117333093,0.41366384061448447,26.31223027609774,2.774878433439467,0.44471521372639566
4800.0,-2.6507441601411195,2.614500780233435,-0.10802858315706915,-37.468494394840846,15.668165121851459,-32.28979261785911
4820.0,1.5449881217717842,14.261651345111227,-3.6473863797013144,33.57674151179781,-24.110834349661197,-6.957873055198877
4840.0,-1.543387082108896,7.595093762490318,4.8294874885979695,-32.55444744412578,22.900314007668058,30.86314355535498
4860.0,2.3616857428668956,14.790480669054574,-0.2211295042591053,27.616914002167167,-4.835661614342798,6.770183121063953
4880.0,-3.6452003188239877,5.466758380270545,-3.515900979783533,-16.491240693524023,-17.23950693673573,-27.677303783568775
4900.0,3.438214070177828,9.109656010338277,2.6850862769992885,2.7042103878897104,25.273334975445835,-14.50192314535549
4920.0,-1.3818812449031086,13.173510535601048,-1.446870183610979,6.165993007690221,-20.61254963464198,28.219746316487413
4940.0,-1.737159015130888,7.976391149032259,2.4728866661795688,-22.857133320757896,9.590468561128299,17.53226760526823
4960.0,4.936122059760286,12.238521990924246,0.06585600391423224,32.84611637249885,14.032077343719683,-19.377977988814813
4980.0,-7.363296778962551,3.2172575165512725,-4.694925597254662,-31.36217504848414,-26.651276896181916,-21.77674328938715
5000.0,7.2916510732797155,16.20446321090497,4.518484463548705,31.020142725767474,24.654212099458807,19.695381381297064
5020.0,-5.015440130685285,7.433951908865814,0.29163751119985615,-30.758278859434316,-9.153844611565306,23.38908716068082
5040.0,1.6062171851386737,11.277725171876632,-2.577704864273327,21.135171522653973,-10.961021143939778,-14.514670507757266
5060.0,1.231888196370777,6.406704981578384,1.393810861755002,-9.299182413403752,21.56509923438249,-26.999763521166066
5080.0,-3.560121294583969,10.672686711934837,-2.4338249714504823,-5.1152762637567895,-23.85352884584658,12.477111172870497
5100.0,3.608149773617235,14.249492702714885,3.600116952522285,14.769574441386856,14.12306464389141,22.32020300287237
5120.0,-2.1852625365105625,5.228971861606377,0.22635362589411495,-27.19534785043411,4.138094301576693,-12.042936112132796
5140.0,1.9930720209702286,12.100360334679358,-4.724550361769174,34.38983070848834,-21.636973543743018,-28.13206114983236
5160.0,-1.369217518453722,5.556314072499783,3.396962602271257,-36.724053281824254,20.865976386615202,6.584784386905838
5180.0,2.8325482735496,17.010346342263727,0.2676357650256376,33.208275377146734,-14.769470637037857,29.866987307765996
5200.0,-3.7247950378683354,6.386879260582756,-0.308564979165561,-21.698852110053718,-5.729549460763271,-0.7780472292061519
5220.0,4.6466448630100405,9.598626896955835,0.9459944506264371,12.895782369273668,23.21241850203621,-27.14728660499142
5240.0,-3.3783100890873228,9.11313501730648,-3.7120103938240443,-4.924668170310854,-21.616071103126572,-4.685535457208809
5260.0,0.4847267165153166,10.53093975990948,4.09370077565008,-9.920478416909429,15.08910360861249,32.994661345194714
5280.0,2.672926134839325,13.558059061925391,0.6538001559982005,20.013941556311952,1.088303499581488,7.9580885574976925
5300.0,-6.436177449333952,3.379599770492171,-4.2939327525233555,-29.427619318365906,-12.968512475258484,-26.816106217951358
5320.0,7.518597144550504,13.624088439679426,2.516998275728419,38.2019428340066,28.0672968613211,-8.839940109376371
5340.0,-6.257286813327189,7.186359400803255,-0.37538591124512516,-35.91069672612621,-19.652826862181335,24.294675005891143
5360.0,4.166702999190004,14.869637419638064,1.3755803585003656,30.866126207748913,1.0782971301053532,16.431627299982985
5380.0,-0.3399928912205708,4.975688689558401,0.7963433469148895,-24.38308247939817,16.113510825838517,-22.38120307499821
5400.0,-1.8761684523608564,9.317563509801449,-4.691118777155713,9.701079306851577,-26.21368781241055,-23.660151646002433
5420.0,3.2477140800283406,12.5648726822093,4.34777993335541,1.420612114892998,17.3817204886567,20.017481333760788
5440.0,-2.9051762595074293,9.24419797068772,1.2094794744629367,-20.08567106158844,-3.377958618799872,25.63030382893951
5460.0,1.6317322914813672,11.914065520212564,-3.260254884737189,29.46389053506857,-12.802262421704373,-19.067517294233976
5480.0,-1.3116594513335198,3.0436664041225487,1.9488462536195557,-32.12141754237879,23.8907920137218,-21.63511582247878
5500.0,2.0048921006593754,16.051995328013614,-2.1154694674881154,35.80929630252304,-17.200488963109137,15.597562432733062
5520.0,-3.4301404044246104,7.563174595801404,2.810608357424152,-30.80455263513479,5.31962749270008,24.35903983877837
5540.0,4.788292994399047,11.944587642575941,0.9940538298583059,24.921075878542965,11.812844966411037,-10.53563825412993
5560.0,-4.558338728496741,5.858964478503723,-5.247107053538331,-13.141637898083863,-23.888031224725122,-31.793934479794185
5580.0,2.9101488700709974,10.815023662365011,4.067730072250141,2.0456518739652676,21.959351041624693,7.048329635406444
5600.0,0.34048563388297,13.593274079627953,0.9328068467815951,12.158970994318272,-5.359519664524896,29.209578027923797
5620.0,-4.3942365392728036,6.632224050775135,-1.5994144011459148,-22.84621858361846,-9.150936465292373,-4.324991002760803
5640.0,6.857636535802197,11.566004121145275,1.0328471984174288,29.823500648738015,18.943491902319735,-26.839846647867706
5660.0,-7.305675599943235,4.799565742942868,-3.2762537357119337,-35.3200500379233,-18.907801803310477,-1.7958121500941024
5680.0,5.703757105835772,17.284769488784548,3.533495119643079,34.30186233515206,7.766220566847736,30.781882929353884
5700.0,-2.643817066071794,6.166334406647771,1.1797556152637647,-27.83534274151495,7.596717507173901,6.253274310298428
5720.0,-0.15947278892344532,10.03054903928199,-5.02342130221897,17.10636566150367,-22.462719091849216,-27.896690206593448
5740.0,1.9545524531609697,8.069344989547208,2.1943080570305438,-5.929540532027964,22.843810298990878,-10.285769627784555
5760.0,-2.2448660925342008,11.008887548161406,-0.14242718375181848,-7.211082104854075,-12.517776912260889,27.529513018561012
5780.0,1.95723174451747,13.758318437411702,0.09486892044299446,16.359360829128036,-1.4332567950959199,19.343373443425335
5800.0,-0.7616749916105896,3.6738131082991723,1.3023316868977746,-28.641383028842185,20.86317987157603,-25.937974072492192
5820.0,1.1657654228338021,13.013780982632152,-4.82432216807474,34.96890517974787,-25.829572887328162,-15.592725278638664
5840.0,-2.8188719252577976,6.696361369794057,3.4771400774858807,-33.11791943487488,14.28948068723992,23.85008284513352
5860.0,4.690264376364471,15.923339022105305,1.936527900273475,30.671351645203064,6.522909468420033,22.108157322909918
5880.0,-5.633879761119522,4.857579542714697,-4.280330043461271,-23.5571656380337,-19.49760187392741,-23.916234976474335
5900.0,4.7424730155914485,9.50427678160381,1.9700236026511266,13.888459954601519,24.00596257904431,-24.172119462543193
5920.0,-1.9899124998506281,11.064072590299467,-1.086869633372104,-0.5805097289387406,-18.512985519963458,15.201383626939592
5940.0,-1.5792468328673532,10.198724002956261,1.7784786434625395,-17.204063802648086,4.264052049347327,27.265878643203123
5960.0,5.136111191993691,12.241932688475671,1.4578397462258843,20.984701741580928,16.185107079909773,-14.749769484049404
5980.0,-7.374554164960668,2.755424857657246,-5.592716597847757,-30.183287447862465,-23.49260848385142,-25.893664046096905
6000.0,6.786856423420065,15.0389405626839,3.1533868201636013,38.62849984296258,18.848129972136874,9.664794111337503
6020.0,-4.243923520525493,7.1357556397884165,2.2114489578631016,-31.67344115275752,3.534107103729402,29.658795037899846
6040.0,1.7430549974233116,13.582443137608024,-2.800779890358633,27.273264083775718,-16.98311536204226,-3.992559900531242
6060.0,0.6661356615639994,4.505833170080127,1.4532997617126215,-18.771769279484097,22.686553256947995,-27.506938836050047
6080.0,-1.5590659359426045,10.888057959460738,-2.7299682655955246,6.815072270734659,-19.112356447746876,-1.0740158215270048
6100.0,1.1989186849119955,13.27451029795338,2.4301246607853795,8.629832340655927,0.8958359197555232,29.08374216793154
6120.0,-0.6787555639961976,7.452705673386996,2.5334178669146734,-19.142671438126406,14.077719275204243,0.761774801583015
6140.0,0.7821907793525676,11.801260703739674,-5.432280594600476,30.536210694847078,-22.12021196435579,-26.915514929268184
6160.0,-1.8391676663064087,4.188785913717685,2.4026765826496757,-33.6900925359288,19.56758928413299,-7.857707451806791
6180.0,3.9217490315056116,17.436429827164833,1.013232552684776,33.001801411292995,-9.292244394769641,28.796148115715667
6200.0,-5.446531160806516,6.640491836522542,-0.5492811104816988,-28.454692546567287,-12.166867802976268,12.988776779197087
6220.0,5.824555668193234,11.411977275734891,1.9065144349791052,20.622310204802034,23.411530522648032,-26.020281552688235
6240.0,-4.045920497950463,6.816307410641129,-4.548067476208208,-12.202996438274644,-25.339153677181926,-14.609878550938369
6260.0,0.8907063010140165,11.535552903284774,2.6116600151420846,1.0327363242007161,7.848107909148068,21.918115085419455
6280.0,3.0130712197217853,13.359052811942696,2.807144812686793,11.47687182074758,11.740725634459388,19.60037440101982
6300.0,-5.7087862863898255,4.470427399256523,-4.153279996918329,-20.813370254862242,-22.1425499171761,-18.13084910033609
6320.0,6.981885793820105,12.540892796601533,1.4814951740257274,32.14625898811049,25.46837910846336,-19.51511019627564
6340.0,-5.402487491112919,6.628616076210143,-0.40382749286193176,-36.52027579876032,-8.592313997735094,22.50531645777039
6360.0,3.15389054078539,16.54779811267022,0.6372160579618279,33.118712114435844,-9.102298188341523,23.3771226307932
6380.0,-0.8029489998992423,4.544327150926624,1.936103867520817,-27.1495761865335,24.164198713659847,-13.562995826724604
6400.0,-0.5524625260010272,9.952624664974689,-5.155464323794012,18.698608777731348,-26.144743316811635,-31.963834102564135
6420.0,0.774770528352005,9.883818153226063,2.254320848321785,-1.5859841943970752,8.2990712750578,7.43283440909987
6440.0,-0.11531420454145896,10.802705282510392,2.6271954947013425,-11.210593950651202,7.6842061433272315,29.663500216508726
6460.0,-0.26785783852720246,12.262984642578786,-3.247815757333966,22.186170340304226,-22.027605852692208,-2.371036160448851
6480.0,-0.6017863954020197,3.2425832123363985,1.049679409650956,-31.77583500638251,23.928405309011314,-31.56503147072702
6500.0,2.8704679927650902,14.588246637936498,-1.909953511577623,33.62873529007221,-18.266673246664695,-4.449244536252702
6520.0,-5.1255638171851725,7.299146405213159,1.6462670461708564,-35.144443393845634,-3.3608810433068563,29.28411015795515
6540.0,6.2570723082383255,14.568617055535272,3.058394272408301,26.885663443567914,19.046318448937914,2.508246332272993
6560.0,-6.172016691105574,3.789704832033222,-5.687006082181125,-25.923622866563548,-25.83177582772409,-31.867357105061682
6580.0,3.5312085485178453,10.451238936117276,1.7746364785238704,14.337455365068031,13.957843053881888,-8.623726304713056
6600.0,0.5723467712993495,12.478394967284407,2.191668772684979,0.6599049696639903,0.9289098489653017,28.901161145055333
6620.0,-4.251030307298943,8.798812112795494,-1.6915449102696973,-15.296310516099188,-19.017459801829244,13.109480833706805
6640.0,6.0961216809097705,11.384989847877401,1.749739283060897,26.858351479584762,24.623274690412643,-27.237431827767026
6660.0,-6.026073674502531,4.344848622736313,-3.3559988977671367,-34.03819897506372,-17.78929245682058,-13.86314593042171
6680.0,4.182851354759247,16.98709674247528,1.9454876897746083,39.40737533641221,-1.3767369010671315,25.058915092540545
6700.0,-2.170003303755712,6.780333858038007,3.706408955481821,-35.301274003006064,15.44663997036158,16.163296954919087
6720.0,0.2530629281632255,11.822090297929794,-5.3001530003982875,26.427690159481596,-24.606056471564354,-19.417747699033754
6740.0,0.7695469060652834,5.425783322581148,1.082757923465766,-19.381369755678378,20.48969989594582,-22.285353040224454
6760.0,0.19102509049354827,11.888203968976626,0.7540259977161726,3.89903922465332,0.35903372034036085,13.963408083487357
6780.0,-0.8901136660284477,12.991520923367514,-0.5583477554925055,7.63362294304278,-13.012555784343403,23.738134635115458
6800.0,0.2788529438250926,6.046412712994549,2.591056485998523,-21.197202368711764,24.25432548385888,-13.58942872994798
6820.0,1.1263008978520008,11.671360397020049,-4.54983979451546,27.072201568162154,-22.307237832321242,-28.805592333342968
6840.0,-3.7679477427395547,6.320725076102864,1.5545197424197224,-35.185604096601494,2.618315547877773,11.88230562714295
6860.0,6.196429847050185,17.13316959816813,3.5606903737353766,34.029315524859136,15.978048865617977,28.556213206008174
6880.0,-6.861560432907008,4.8061765080697345,-4.006923111276253,-35.2562832119001,-25.26552007831897,-7.476464417309481
6900.0,5.262739166257157,10.32681539319705,1.1818855739312024,25.982375965027224,21.75665857318305,-29.022496635078262
6920.0,-2.320878978082758,8.959345766751095,-0.8993573959574013,-8.767858151088555,-8.633861655813371,3.4399857269786125
6940.0,-1.7142317365023867,12.202169014066136,0.42969689842205894,-2.25353117880598,-9.800158968477913,28.54629867038859
6960.0,5.064086560791154,12.263444601023888,3.6742418821812195,13.424578148578359,22.87949234454459,-1.30512075439888
6980.0,-6.124747380083807,3.2869799273618137,-5.091044278485365,-25.02146584515814,-22.714457108798886,-27.488491332769545
7000.0,5.524316601750091,13.866076971109262,0.8707275774039706,33.413502700242525,9.353273989479732,-3.7365864723406688
7020.0,-3.4702771997996424,7.1109534710568365,3.456261710685462,-37.62378452128009,10.957432443130571,29.783242393882816
7040.0,1.635630172482706,15.234762206725117,-2.2594887918669166,28.276823708703255,-21.596133737965108,10.628224216426716
7060.0,-0.4846409598919301,3.8883081275021887,1.5856259493982012,-25.800385451409156,27.720515199374464,-28.277993683043928
7080.0,0.539181092782839,10.899500733971456,-2.7283915085723724,14.737981154303855,-15.887053830054311,-11.734382636869874
7100.0,-1.4736784516048864,11.497421723193119,0.46199909697760044,-5.6787336900370535,-5.409242606847621,28.399463476456535
7120.0,1.3854836753791537,9.635664011916719,3.9828338738766327,-10.080137035963729,27.679628525937435,18.960378494834252
7140.0,-0.5732539053868435,11.17059818232088,-5.138277104471965,20.396902664722333,-24.748633967348457,-23.251606582659868
7160.0,-2.044112346600622,3.6849586294844214,0.4982731299911908,-29.773345785586585,9.984297845157744,-19.62709606251356
7180.0,4.752347337968721,16.44583280141643,1.6029032361144901,31.84616745983997,5.313133281286408,16.539681462786398
7200.0,-6.989384766872151,6.779602482000859,-1.32265513615361,-34.411905307187936,-19.377313161907356,25.876934167679153
7220.0,6.678054707027352,12.164864271041246,2.3357495479505777,33.13600653529138,25.180124997225587,-17.070819541986165
7240.0,-4.739471299449979,4.862904651148336,-3.904857429332165,-20.023848567504963,-17.79149443697394,-24.820901943034677
7260.0,0.9481808424576313,12.36957710259161,0.6038035357096432,6.109822629109655,-2.4356420587057976,12.202920819173876
7280.0,2.7564708409024834,12.743876481214482,4.180021849002907,5.248088942722617,22.322046134130694,29.82217214910365
7300.0,-4.841357807242471,6.838315449291389,-4.053862510607055,-21.378615501278762,-27.783508086369224,-7.890620198028417
7320.0,5.608733503402753,11.328177804413333,0.6072462329224811,27.819784552980657,19.277069964762383,-31.901881433882423
7340.0,-4.3238804046066415,5.021348881624369,-0.4520867603242597,-37.484894698883416,-3.598185497762778,4.344583436302403
7360.0,2.6134783649569355,17.388332993156748,-0.45474220693179446,34.9540575983721,-19.94706179841406,27.890263882862747
7380.0,-0.9559507769532889,5.4725745400624115,3.835746533949928,-33.949274678403015,25.443907235575775,-1.264437748685697
7400.0,0.9999640927192621,11.32800880645505,-4.509273009963233,22.104742779681388,-22.543233330667576,-30.64146121517258
7420.0,-1.5687456439091592,7.039984098095166,0.05508648345869176,-11.111116518967535,2.2271234613008093,-5.014021153921382
7440.0,1.8520915141331995,12.44186391206269,4.110903992853082,1.176240671973444,16.02842819979768,26.992812498626385
7460.0,-1.5091488018911077,11.78125565913084,-2.836158350292655,13.526937939440225,-24.140040597162795,7.733574406340214
7480.0,-0.2791908712475524,4.359971378390384,0.993492021080042,-23.3099692020953,18.66405407523046,-27.084609455831025
7500.0,3.6977293531073894,13.035406761330103,-1.7250329172394787,29.28497499922792,-9.66166701638701,-13.923606606528041
7520.0,-6.370635777046235,6.896654992385353,-0.07306042005227067,-35.48849595436204,-14.4869876588529,27.343875137548043
7540.0,7.319142670048521,16.1501550853959,4.528285428133749,33.776122120474,27.191938162711693,18.233655180743316
7560.0,-6.426411930115505,3.7944435181895178,-4.701338558757996,-29.106907944293354,-19.880081983124132,-23.00501533513205
7580.0,3.856073210544973,10.93791356679848,-0.6656071270737611,19.158854080664838,7.782290292194634,-18.21352605633617
7600.0,0.20385105958460487,10.703607679484895,3.290410436989745,-7.5251133883336045,6.548213899511718,19.552101591413866
7620.0,-3.636605840101034,11.17482587852207,-1.7548348037191945,-5.49458972589854,-24.577738719892203,22.389058322823157
7640.0,4.869906651002557,10.856892718730222,2.064480208789733,19.67320857832081,22.17588409655268,-17.325059023190303
7660.0,-4.959426881086469,3.620898594071608,-2.807159071071066,-28.69243563757784,-12.22411511339404,-25.41351795823347
7680.0,3.285389088321911,15.642853641828205,-0.3919391289380904,30.593210788707374,-6.083628295051477,14.393816917409946
7700.0,-1.8589581309606171,7.1440124944161605,5.2906391079947985,-35.44756845315688,20.129657963265817,27.32579074982478
7720.0,1.3004580851927139,14.052398859481734,-3.8213827245455487,30.612317377698393,-25.3756898539077,-11.118374280304538
7740.0,-1.8887710811171208,3.9838591611360936,0.13484612664151746,-24.368907063718638,8.851747250133595,-29.82350455904779
7760.0,2.5876603940866287,12.157693526803454,1.5886301979469126,15.406353629020028,6.047625197737747,6.546189144100305
7780.0,-2.6871447286662233,12.441980909782716,-1.0678785860520321,-0.08324220249156611,-19.733801833712487,29.27277996831384
7800.0,1.628419130416876,7.851240664522272,3.1067812140090076,-11.115864811383815,26.283057717227297,1.7652358816685825
7820.0,1.250021663597531,10.588936177153315,-4.088470372937877,23.352400512257418,-17.04312751572805,-32.49379359951431
7840.0,-4.1449728567343955,5.145431964141513,-0.6887507012719303,-34.13407405932228,-6.835456873050109,-5.7049924201306235
7860.0,6.881110888190225,17.171979108529886,4.878918015608373,38.057421888130754,21.033978437809363,29.302886416108855
7880.0,-7.066426452156994,5.8225505720636415,-2.7038321534619283,-30.980883402467015,-23.13949810689466,9.59637668984998
7900.0,5.526979314108292,11.423073418410278,0.08887607583493595,28.270911253076516,17.5097049078445,-30.824055911621162
7920.0,-2.1944844049785117,6.108322905604194,-0.5675088949884779,-20.094297308545286,1.372525488974175,-10.319140580300035
7940.0,-1.6026344816670985,12.630134459460965,-0.8175060347015003,4.496736054915393,-20.122378985419175,30.115273173981205
7960.0,4.221852656885007,12.003191834149991,4.7060645115890525,2.92384886484129,24.511414332913432,15.565471891059847
7980.0,-4.625560692450473,5.144000309081083,-3.931229885002546,-20.577907936254753,-18.985580323785015,-25.34037495837835
8000.0,3.759582875648331,11.812226622656095,-1.3617956140291743,27.56572186745221,0.8248681068699696,-18.837348461831322
8020.0,-2.2046462295518743,6.4392174029612566,3.466781913127489,-36.46938569043875,15.081294805245241,21.0518309186341
8040.0,1.5514950347623782,16.577020706811552,-2.366470900915971,35.42005521433922,-27.05917006290936,24.713422225671508
8060.0,-1.8918644061099426,4.119842720587509,1.57843425927838,-27.063353550004592,19.838485124911433,-17.707570817579604
8080.0,2.766731027352025,11.462397031920695,-1.9312412919615982,20.80912449347673,-5.463040999365594,-25.68119262946377
8100.0,-3.369157539943123,9.552025690056649,-1.3405510388048751,-12.35548592053778,-18.639032158787522,13.302487604438554
8120.0,3.149390457027919,11.834735546582076,5.348305950862841,2.965676311297126,25.341549296263604,30.222912430035226
8140.0,-0.7312529931936668,10.731295486875265,-3.6276062701207286,11.82570923212106,-21.334227556153138,-9.54054988393985
8160.0,-2.5405789400240595,4.17417682782631,-1.3294585641283017,-25.62472756210056,7.796889666232266,-29.7169353666632
8180.0,5.565898102304269,14.994938278761326,2.3278054671467103,27.95973839937645,16.295484552809725,8.101029056951944
8200.0,-7.403450505104659,7.420575955369514,-1.7297805693763382,-33.433008629250494,-21.60550654832203,32.24946862414001
8220.0,6.940234532363219,14.351458069582883,2.9354283916026302,35.6035444108766,23.53037611947757,-2.4357178850298946
8240.0,-4.378616687631485,3.319377428256589,-2.78313500488481,-26.384576363076988,-11.899135057914824,-29.093380037627753
8260.0,0.8834708233717047,12.186736321483345,-1.9096049620265465,13.53512602545036,-9.484910077011424,-0.6426245747872088
8280.0,2.1114891572613734,11.452224425450982,5.477767472786402,-8.084981745436254,25.886226512548625,29.85660856384333
8300.0,-3.954662786157907,8.817581386205328,-3.115236958595772,-6.068004018933874,-28.916369862399915,2.5765090537197657
8320.0,3.32735096341806,10.28516903646645,-0.5711127298003735,19.785324456285153,11.097105691909027,-26.802421197778234
8340.0,-2.4641808816447925,4.916721178075496,0.7320099577658522,-28.201844120506983,11.637494891508537,-9.373039076358298
8360.0,1.2877508016763242,17.07840184082488,-1.0965971080306076,33.943656345215594,-23.908532119160043,26.367265053339153
8380.0,-1.629022005470174,5.9812116660156365,4.184979414728628,-31.18002215488538,24.602113621204484,13.705242397818637
8400.0,2.785685868737243,11.888099420869722,-3.335539722509438,30.681027330966973,-12.573331641946101,-28.53131722258767
8420.0,-3.8380024086177227,4.946101399454018,-1.961007065731419,-22.85152523480921,-5.136282878087124,-20.466003377809315
8440.0,4.217444045896992,12.973996086033248,4.55909105575044,12.895886890342592,21.553726335092392,24.186480722034705
8460.0,-2.7147123820344894,11.604292552469222,-2.3128142051321015,0.9015630326867308,-24.87025645362504,20.42973099600588
8480.0,-0.5253461524804195,6.257592336015561,0.6679781110134292,-9.190391269620758,12.51067776071905,-19.371532083364688
8500.0,3.8696505218436705,11.306239150699767,-1.2231778899492431,25.939006310783203,4.494783754040498,-25.113701817054533
8520.0,-6.375215233218712,6.502944061808904,-1.8955199111384817,-32.86497262272691,-21.671056170291926,16.697429718480333
8540.0,7.807251295191684,16.925755282221065,5.478979376671385,34.30806328277682,25.95488062524339,23.823051855047247
8560.0,-6.352429028553613,3.993870480611757,-2.956696248696787,-30.682345193124156,-14.179827544370474,-10.884610596918007
8580.0,3.105485344265688,11.493993301434577,-2.4536229176755624,28.417801893362263,-3.888631819993413,-30.435286402046017
8600.0,0.24263397556536,8.588918716778155,3.050747698139779,-17.880870653866246,20.763498470665574,7.370241265383541
8620.0,-2.2797299688679327,12.683142249590293,-1.3919145051146402,6.831154527602532,-23.840810955088326,28.934716104780446
8640.0,2.9994558366494477,10.590007727893708,2.370899582945169,5.487186669563139,16.890297917410457,-5.830618301880865
8660.0,-2.94737804737917,4.48832767420525,-1.9336155650671765,-18.25725569895782,-0.8912089255625889,-29.07337141150723
8680.0,1.011170246635035,14.267371857270925,-2.309938826143794,31.027402302802567,-15.289600280735959,1.3854102403395152
8700.0,-1.4205088668196484,7.627156599468325,5.457428186343808,-33.16570128211162,24.495062508214062,30.419725265004114
8720.0,1.8821064595745556,15.263681201789174,-2.627011844687847,31.394193621804106,-16.535712670199228,2.522205066006042
8740.0,-3.291901493621519,3.2349197854683656,-1.7697404624119428,-29.226707508220635,3.459985192267559,-29.12953726596514
8760.0,4.593360034885376,11.864499788551461,1.5828344277214077,21.75001199756238,14.852224278294791,-9.36479144591358
8780.0,-4.095511458352305,11.00698257922639,-2.118682438824317,-9.257899969450513,-28.034181591454082,30.056756389384105
8800.0,1.8567257389237042,10.74991675372432,3.827754220776745,-1.9914271418755431,21.725224175903822,9.506553858467282
8820.0,1.1695061170666372,9.607991828124005,-2.343057118469647,12.70357224737409,-4.8668889171289225,-27.0413975537257
8840.0,-5.007645786599991,4.7381216346756245,-2.9373962926419956,-26.733274813274157,-14.134488212339372,-17.932501909627007
8860.0,7.008401569023185,16.756472020572623,5.06941051564483,37.60133536384538,24.434295939302416,21.556522800123822
8880.0,-7.102931852737553,5.781969682435496,-1.7660136558527555,-37.71755586270624,-24.314779607250422,23.41453832424089
8900.0,5.10960648106722,12.578290340780265,-0.36272360978208057,35.22241375764463,6.096011357646329,-20.277605927426556
8920.0,-2.0508489987550744,4.115583223665459,0.35381293208981407,-30.15355602937266,10.881150993915305,-23.57450836278568
8940.0,-1.2954094181312805,13.699047551123828,-1.6432185286386283,16.14525101852442,-25.259573322559394,16.308146668539706
8960.0,2.721631248038763,11.810709752216983,4.494156690722994,-0.9863423342473907,24.540494092890118,24.512229979857295
8980.0,-2.5611552290312716,7.359054551340347,-1.974459412593073,-8.338493912837682,-8.975686899350732,-16.26383389578857
9000.0,1.6148290050315095,10.69013942379853,-3.0977948509075044,21.67830917114847,-7.852196401759001,-27.6104045419692
9020.0,-1.0394355313313073,6.427101235685193,3.8796342820903695,-27.876652506938072,20.210737820107568,12.009498844794962
9040.0,1.7479113091433218,17.012536434060365,-1.5230125102141068,34.485938893569504,-22.69938601984384,31.716926941827563
9060.0,-2.689947990028733,4.093921307615975,0.888373395748119,-32.18752765960039,9.250711912556676,-6.144734658975608
9080.0,4.717362171863782,11.348069278868227,-1.0856983667950657,27.930832963547495,7.270915930561218,-24.897522083134614
9100.0,-5.176253660812437,6.899474704892773,-2.872022208677742,-18.996071246855646,-23.949120384833453,4.46630805461098
9120.0,4.26962222536438,13.597003232870012,5.287560529252166,10.910853755491253,23.977036073911766,27.48314732183772
9140.0,-1.1935991161793598,10.432304600279332,-1.6865047920964191,3.999512596648065,-14.101755476212862,1.7955447133101097
9160.0,-2.421772109086431,5.373012695229025,-2.8742057709328495,-12.868646517650374,-4.877157346887133,-29.085320069714143
9180.0,5.774835215223672,12.874853961412088,2.4029986097290497,25.358788804789295,23.01864507275518,-6.638281111329219
9200.0,-7.178806137369791,7.633602861785727,-1.6658592303245983,-31.55311702049932,-26.575149687528477,29.42257986517856
9220.0,6.388664089653241,15.714373442382005,3.374018911863169,37.124583798865366,15.260072296607781,12.653587421288945
9240.0,-3.7569359386953143,2.7432637264281263,-1.3640000251336826,-35.42341948437828,1.171035904224764,-30.741181505019647
9260.0,0.8971700864383957,12.313506323108559,-4.118857089698272,24.31285215901144,-18.924907173316303,-16.63414360280836
9280.0,1.4783190713281067,9.67475127695254,5.179862388395748,-16.338115359552162,26.827759543751036,24.08181650067381
9300.0,-1.616239689842579,11.852479259560317,-1.150334361928045,6.670322664898391,-15.137872080870826,17.229525190203685
9320.0,1.697669838946922,9.822499357781368,-1.026427838313152,10.793253725265703,1.0656343801815933,-20.877866849013767
9340.0,-0.7496031276714065,4.85096912315363,1.0725715324086862,-18.784789598711193,14.80022695340551,-21.374645032545253
9360.0,1.0869618000225318,15.91246050686734,-2.480195238020793,30.988220650197146,-24.668145654640636,16.6586948794683
9380.0,-2.1443461397861996,6.909566417769967,4.291230821763671,-33.544948931938094,17.919857969316865,24.88203699177602
9400.0,4.164555522618571,13.403608585439073,-1.7308906995102997,35.28743446305335,-2.24715609424192,-14.292794166821928
9420.0,-5.5661672954345205,3.1082922005586253,-4.0664377839581345,-28.9054318721227,-13.199825453836482,-28.5520607937335
9440.0,5.4215568485019485,13.58728218628041,4.302361491974528,18.585036895874595,25.801662941857717,11.20282079744486
9460.0,-3.705141812229948,11.00650390218467,-0.6381076569262336,-6.963756989242213,-19.023483225710095,24.36590087859685
9480.0,0.42247982485285945,8.514531564939055,0.10743881644284134,-2.995606345626131,5.739970433897951,-5.679956853673497
9500.0,3.623548584132267,9.413906754217845,0.4475730910483081,16.671261157265047,12.857847791123525,-32.001396164299535
9520.0,-6.707837271719594,6.0885011678894365,-3.003029189203432,-27.760746813972304,-26.644484970323173,5.125152366857047
9540.0,6.908944588055718,17.373626669555698,5.216724026479242,34.75355165391158,23.72772793198092,30.87887547037458
9560.0,-5.5388806717843035,4.907928557529955,-0.9776901023119615,-36.10533208370204,-7.376960366435443,0.06606743999377396
9580.0,2.412706249542421,12.026762216420595,-3.516438080288711,28.09954461523411,-11.557073840208167,-26.908323471358205
9600.0,-0.3443527510796155,5.691929860936201,2.84694603723618,-26.199994761312922,22.792739367191807,-5.267032183019325
9620.0,-1.0513843389737156,14.38619779527356,-1.2927811478754248,14.591234621009031,-21.561580056412023,29.987925558030305
9640.0,0.8009096478593623,10.361161197150386,2.1401701721038284,-3.8373031952301853,11.434775670604752,11.05221666816961
9660.0,-0.5060713096459128,6.153789736768887,-0.36219421117402,-9.962765996374566,7.312581017652363,-26.411785869199935
9680.0,0.5502730265065507,11.940586917045954,-4.125920166865294,25.33748678800201,-21.253998305425483,-13.814517116947934
9700.0,-1.1608219208581887,7.786000947902318,5.263954858930797,-30.34045578551209,21.464958309476078,23.481269026427874
9720.0,3.109521798193891,15.863981833702066,-0.4114593982661406,29.373235241640824,-8.698846744886046,17.075668140927498
9740.0,-5.008442157360358,2.8136045156371585,-2.2869732726999445,-30.721413614975148,-6.20889615365123,-19.64168013956551
9760.0,6.064782587515184,12.179847342442393,1.5185499918136762,24.099446692603202,24.918051856427372,-21.18082832750481
9780.0,-5.220707381556567,8.880825216735479,-2.3962820827282654,-20.00129919030302,-26.24720134745159,21.877337187368006
9800.0,2.5779772712402194,12.908820050887854,3.2439512412252793,3.8766066186950963,14.158111988414571,20.65569400575854
9820.0,1.161915274459067,9.515860547412494,-0.35697889532162613,4.378161480978381,4.870716125523337,-18.040263057544912
9840.0,-5.080705733581177,5.1206575614076,-4.543944295333047,-15.957787506701626,-21.8573702969699,-23.026781153786352
9860.0,6.405991386190641,14.548721810394891,4.320166234029273,27.291804348403616,24.53670098383762,10.25579148974056
9880.0,-5.809634159593589,7.800726624145692,-0.18690518894243446,-31.732927533742245,-15.057395984772,28.212363928210564
9900.0,4.320420561310071,14.003813467868126,-1.1415609384668206,34.592239799247025,-2.0475499736747635,-9.42570719835951
9920.0,-1.8160903930659178,2.904880949044714,0.696925445218095,-31.42379748309319,15.812740635531261,-27.709459307927204
9940.0,-0.11327339228536762,13.713342009052273,-3.162863781747681,22.78393653410485,-23.836553859207427,8.788017433225406
9960.0,0.18185183894287432,10.710759437175124,4.17589622878842,-11.272030224379968,19.37269538704818,29.14353734783619
9980.0,0.07659640493193401,10.16989431799132,-0.04868736749109235,-0.909416118115027,-3.4989853870590792,1.4393310385458364
