timestamp,ax,ay,az,gx,gy,gz
0.0,0.20754214216826283,9.866761632119271,-0.43819697707901767,-1.9110440360324634,1.5581818989657674,0.3352041129403442
20.0,-0.3122037229667275,9.174288656558158,-4.052138482078574,12.389135251422003,-16.13251254229225,-32.66559257958656
40.0,-0.1520844077017351,5.9599691368425995,3.384109203103627,-22.16815919276956,28.194297565908418,-0.9106401424025998
60.0,1.4840468023886213,16.575346527779235,-0.656291295364259,32.019587288692485,-15.491301192639865,28.842089344681355
80.0,-4.375002745945112,5.406892376570277,0.9527726398501388,-35.511252874451586,4.914782105420616,10.283354701670236
100.0,6.12280692469852,12.592945235782414,0.11112194825362484,34.62593056132245,17.771807948121552,-25.68916924087558
120.0,-6.6955426666199065,4.689481606349803,-4.541667027890362,-24.256404388997694,-22.922001970865097,-15.371924575483835
140.0,4.552870193977656,14.768227264970529,4.320464546111562,19.96938336281858,20.953577978390037,27.069992647405847
160.0,-1.1281262410543251,10.071072592776945,0.29549086529219104,-3.1945400827058115,-6.821291541254927,18.055201600523688
180.0,-2.807737800773059,6.774320541810949,-3.568559966070382,-5.1429254424418644,-14.430046626476756,-24.12620046614177
200.0,5.143099177547552,10.966594773648914,1.9272688499229385,19.6375182279887,23.009030561703632,-18.958208175269956
220.0,-5.9036286912108515,7.345093976214988,-1.601792487159804,-29.023109632965095,-23.871038044162308,18.640879479153558
240.0,5.32149885280808,16.669603744905405,2.745331677868224,28.8377026548538,6.983613768959638,21.22548228190687
260.0,-3.2365481522651494,3.411348370380032,0.3420987990089618,-35.80613956181235,10.306611026654412,-14.124179121707463
280.0,1.1546913815098567,12.421411827492607,-4.640363413160458,32.228789358182766,-23.882277996808195,-22.31432694422608
300.0,-0.28977715360120215,7.605205052379933,3.9905815428998404,-24.431590168356422,22.61099391702037,11.887839410655284
320.0,0.08899372780223924,13.74557432724735,1.046508895559917,12.483362842283697,-10.827556480237718,21.865115675112577
340.0,-1.1965458540508465,9.070350142809998,-2.245600555534732,-0.5514958037892974,-10.465325755819633,-9.961472034154403
360.0,1.1413539405996502,5.301476734237498,0.9570100332873848,-13.486185304232544,23.937099524876054,-28.55762526870492
380.0,0.4820543783211696,13.863868386584429,-2.6643224445105496,29.486168127744357,-25.68817299855013,7.162151144625262
400.0,-2.780176675705372,7.858184135608401,3.507982432413656,-32.10694647339373,11.344438575929908,28.717555194292043
420.0,5.089598256232781,14.60822796084462,0.9950992658942713,34.46399733163838,6.5997002434004575,-3.1723056403140832
440.0,-6.597754137329485,2.241688599771749,-4.875725527335404,-31.54764106922192,-19.7321349599979,-29.353531373035523
460.0,6.295493109630563,13.726483897624185,3.1151803411126475,25.68803056295498,25.86472245622711,-2.15040391754874
480.0,-4.0734218718283035,9.66108111060497,0.12599579286139695,-21.081827058410877,-12.281811200306851,28.103237207951747
500.0,-0.10432134579414226,11.13238063711347,-0.11840964325137733,5.725617824456703,-3.4106884544056872,6.5010604317386935
520.0,3.335987145896419,8.671035727227975,1.0382328436500212,11.368554484835073,19.663325586221912,-30.227155939362543
540.0,-5.591441260873351,6.255808392513318,-4.007349126700937,-23.67313278154296,-25.088105824893283,-13.06934652924745
560.0,5.518363264896366,16.68258647982781,3.967344591325149,27.727852722724798,14.321140277561277,26.569620240067557
580.0,-4.078808742390361,6.398901621897785,1.281627583561377,-34.737595373660454,1.1936871243339071,20.934516853079586
600.0,2.354235343853681,12.88280614856943,-4.332926134049281,33.894086693737364,-18.759726059525928,-23.996840186337977
620.0,-1.1719999424016476,3.755429117090679,2.371953778796687,-29.09938638662644,20.573289025030522,-15.67369085634286
640.0,0.9626840560447139,14.808548412228236,-1.0964206318778642,22.81342978441432,-19.251290959559025,23.586567579098826
660.0,-1.4164405315851119,10.336911513870778,1.4965617588633926,-10.401429108420396,-0.749313480544188,23.003135214886647
680.0,2.074416638450653,7.675351911217222,1.6262328898148648,-0.09228903266187727,20.230788295097597,-16.86601374819572
700.0,-1.373626469690219,9.680250944565293,-4.964999951396407,14.740347362427592,-23.85638827860208,-24.842583935221327
720.0,-1.173402394795299,7.575873303354562,3.474597641470827,-27.28632993117942,19.96276809570129,11.756546025118483
740.0,3.81378658979765,16.532737782428985,1.2644888282495883,30.845743806926368,-2.145394056658656,30.12112515058061
760.0,-6.417457052963512,3.8895906608871313,-2.751250268368569,-35.309402208692134,-15.334210260591147,-10.728950908512958
780.0,7.528443983916081,11.95318207315308,1.4661589604657062,32.5816712697598,22.95181363228455,-29.318246256592076
800.0,-6.0314516186771625,6.724523714059709,-2.36257186906584,-27.25037571337127,-19.380310622656804,9.710728612173039
820.0,2.9548351091087603,14.682983214014426,2.570014839542218,18.820709903939722,-0.4949278207387975,30.913500138424634
840.0,1.0866724756408055,9.050493413196499,1.8955200551831197,-3.3288716670892278,14.554096862060295,-4.701669115456275
860.0,-4.200874818215317,5.806618840199809,-5.313424189631479,-9.28229773515358,-28.250641111440764,-27.4258268764416
880.0,5.2109849992788515,12.329164490615987,2.8369349591527118,20.48670244560098,21.126651326670903,-1.2217934112780484
900.0,-4.594598030412711,8.16461537685974,1.1322560869647489,-29.450609465494264,-5.4844390923932895,30.98677024760448
920.0,2.920940556014097,15.545182658956762,-1.252710278886706,37.173024732460206,-13.61927876933639,5.032609775441211
940.0,-1.1144030866582504,2.3567815735914093,1.5009960420219006,-32.55795909221203,23.30875252426454,-28.689573172440998
960.0,1.0895146465366556,13.337576715396246,-4.01029329465886,27.846463161659152,-22.570092319861836,-10.012846696646006
980.0,-1.3915238773851795,9.056428704360803,3.0875920803356793,-22.629803406209746,8.963219389127264,27.60338286788763
1000.0,2.058279257636783,12.475089616781156,2.200931890940111,9.197052595421622,9.314766796523006,16.668515174384073
1020.0,-2.0092675427175877,8.522229129149467,-4.813638978145728,-0.21966624343045105,-21.57344777390165,-24.711189642594366
1040.0,0.6938777732934627,5.905610452707973,2.3945618842124388,-16.057244854907804,25.75438687117,-14.258313859678758
1060.0,1.8777791423828223,15.487078196635002,-0.024456030015271517,24.945984321244843,-9.793094553754251,27.971804226286444
1080.0,-5.07575518242577,7.184267183189378,0.359938509125061,-32.91913362863615,-5.3040844889259695,19.245105509223478
1100.0,7.249562986925622,13.173365824075947,1.7966922478569325,33.07028193649311,22.546018603026777,-21.16344105835898
1120.0,-6.880707348332862,3.396047731569973,-5.1827002191837686,-30.314556304627235,-26.77082789365289,-21.426684796272664
1140.0,5.157206395902307,15.09150178883974,3.0018578052532967,24.983538215066034,13.909672159091814,12.619054302655329
1160.0,-1.073948954690555,9.952384178587755,2.674465843760103,-13.70220981954334,2.2741986052336616,25.66512258237515
1180.0,-2.172716253152663,8.887948546781951,-3.6665492716885155,1.7635784168573139,-19.916764728815217,-15.60971564634525
1200.0,4.289727716897834,9.042771710387639,1.6537047760310033,6.3851280479637005,24.880163826988785,-28.62749102167543
1220.0,-4.901637159937037,7.731599992234968,-1.624571488739956,-21.141928198464964,-16.023401577830356,5.53328939911788
1240.0,3.508931260633027,16.733269424809887,1.5765428885638657,30.337925067770705,-2.0681933743992187,30.51660565458526
1260.0,-2.1034413023844656,4.214592895036635,2.330435834510706,-35.328979374771784,18.1556603318333,-6.900792488247712
1280.0,1.4479147511780692,11.705974630746676,-5.647282419173239,29.90774506373728,-23.62004968597195,-30.688099100233448
1300.0,-1.512287970002215,5.343942699115646,2.433216470038196,-31.452941371327803,15.19508205415568,2.473711337457664
1320.0,2.678869184387392,15.372376533984337,1.9762495568578176,21.799486944059442,-1.264635458374952,32.8462568748659
1340.0,-3.149414863789362,8.962638483776455,-2.2441443238714145,-11.353056901965754,-13.24882153320516,4.819871324362332
1360.0,2.4939467393205765,6.5564187434981775,1.9710180983642174,-2.3676838636074016,26.84001801557822,-28.029926134807408
1380.0,0.1875766331740138,11.819809857733844,-3.110134719908312,15.949276076236595,-18.151154647193277,-7.458793347358543
1400.0,-3.1305441921630703,8.262910510584005,2.459564671582565,-29.855598302374773,0.36367630882730606,27.566648393209963
1420.0,6.14667997158398,15.70889696526263,3.161898317570706,35.03776456445433,19.973216155687144,13.447987602192933
1440.0,-7.603075695690669,2.289949573594971,-5.014028381293304,-31.30459000739131,-25.76430083534528,-26.332805648443326
1460.0,6.5416042702598425,13.21280471081836,1.7091620063728439,34.44988197626132,19.68808933943909,-14.26558734053177
1480.0,-3.710128105841198,8.235513750202951,1.2320728893771824,-24.952089648995692,-5.377278381201601,22.55288679380329
1500.0,-0.06750147686782537,13.477474090104092,-0.3724247437958443,17.591800553720915,-12.765909026126845,17.67646406541698
1520.0,3.078885169286185,7.600166713360144,2.1800381235708617,-3.454801615899415,22.733986078259605,-20.15267826357491
1540.0,-4.103755106537167,6.495762377129328,-4.510925155642196,-13.564995664829585,-23.708437192664388,-20.76297763993768
1560.0,3.89099315554583,14.373196481890398,1.9139431687317894,20.102391940912785,6.912016154429888,16.077826008502004
1580.0,-2.6028188182588727,7.520824746692099,3.2387101411638444,-30.27810013133054,10.06419779208472,25.622956650789643
1600.0,1.3258654936697347,13.687435029980481,-4.4452340139207775,31.709804213449875,-22.315999904763004,-15.57373640962592
1620.0,-1.726373521941848,2.5076901746522395,1.275825986509393,-33.01119802028058,23.713648846035163,-29.573885616262864
1640.0,2.4561652840092605,14.338333343654105,-0.4694182245269635,26.127617311214234,-5.820680355913705,7.141406161427314
1660.0,-3.5126366717582265,9.307537273336624,0.6934968168882274,-19.54803167727585,-10.23118938398677,25.349612939570438
1680.0,3.768803911208672,9.956114653748468,2.8755698031769508,8.289972536524449,22.935710994216578,-5.12357838292257
1700.0,-2.3963219553613504,8.10739170009075,-5.330657169749512,5.8812354674396365,-22.536462472162945,-30.686301659002584
1720.0,-1.0001023109449612,7.205853157824239,1.5165920937524726,-17.080545650667155,12.971545105168547,0.4319330874150884
1740.0,3.949752089474461,16.369392169727654,2.797347401195638,26.37016257936305,5.227929327751058,30.4766271029619
1760.0,-7.113623720331773,5.486807522711007,-3.015081112755532,-30.86501113886257,-18.768129072714142,6.4126595991755355
1780.0,7.317041771063476,12.244469915524482,1.5088092710857852,37.128872364590315,27.05979999009136,-29.742489396563453
1800.0,-5.429166200356809,4.632298901998378,-1.9976388713251645,-31.089516110063784,-11.926224605857914,-9.203607000665315
1820.0,2.551601399510832,15.656840202101744,1.0135908164721878,24.39296418120418,-6.706060916698182,32.200608835008445
1840.0,0.40659237680401183,8.428387366139475,3.4754775630339014,-14.943651976829477,18.12711085411985,12.205035629909625
1860.0,-2.9304440508374388,7.405514342742875,-5.532658965337548,-4.627853668764453,-28.335864650901016,-31.936771823764346
1880.0,3.2761019060333587,10.11222765383027,1.0930219289150152,14.683320164569079,12.951222780567434,-16.01045782051388
1900.0,-2.5537047528018806,8.55070178689981,2.088567530872921,-23.57319822184175,2.5288514931914357,25.165153570881394
1920.0,1.2157834449779368,15.839857628504214,-1.465670451466182,28.52243596380535,-20.299903671484536,18.83025853499853
1940.0,-1.433884595542123,2.877586082990975,2.367503777235828,-35.11727996606882,28.476943726475216,-20.89214446891336
1960.0,2.1122914237483226,12.775779105802178,-3.8334659179302237,29.949994710640773,-17.379058343480146,-19.579179044040718
1980.0,-3.677824445714512,7.338841400643746,1.1941521212657777,-26.33351502000141,-0.9538352265799881,16.872804227063174
2000.0,4.740225810270854,14.651415891376207,3.9046828644891027,17.291229982880083,14.987134013023624,23.829855332074793
2020.0,-4.112143724488064,7.580117934995458,-4.776912463606027,-7.430944741038035,-25.902668518098878,-13.928910888881898
2040.0,1.4344967707209684,6.611750077893452,1.0946808129401373,-5.4082874793635645,21.69439517739436,-29.23465644060727
2060.0,2.600865020523263,13.697608607912368,0.6541830859923344,16.652625527902348,-2.7423965490177933,13.320087765245322
2080.0,-5.65629751865835,8.085338071506722,-0.3836140776951016,-27.335270791691688,-12.131513495272126,29.449784785963384
2100.0,7.184285159295395,13.814283121806776,2.724157094619148,33.05646958647144,29.20816495420423,-9.441252506847336
2120.0,-6.7557359313733105,2.3922575371540216,-4.737199212701345,-35.078895883497005,-18.98540716686587,-30.139873206632355
2140.0,4.5571169604638335,14.540950617589328,0.8821607248641962,33.25471836360802,4.754912871907265,3.9673222945441475
2160.0,-1.275634592619769,8.877344568363185,4.177807683201197,-18.35846347160661,9.81003808887304,29.94306799801392
2180.0,-1.235102705920469,11.621890904136375,-3.2227202112956594,12.303475811107004,-23.454159735656386,1.981400932986209
2200.0,2.3768022019667083,7.223015820738737,1.3245486427900623,1.911630890207518,22.569841070027095,-27.032325489061687
2220.0,-2.436540232985916,7.690658781010534,-1.1348358159458671,-10.994702992548351,-5.267057899787881,-4.861655134466657
2240.0,1.8319310356944227,15.730154360405272,0.07051940152263114,22.97942968035907,-11.670949788975047,28.314457558522935
2260.0,-1.4009690220248359,6.319241139501752,4.014432770719354,-29.572695181695295,25.31632856728104,11.182065036225172
2280.0,1.656845424116677,12.614974617086574,-4.997996730995002,33.15761742431619,-24.7871309780468,-26.491622447283085
2300.0,-3.2609806374456167,4.1681925360219045,0.17600747663361882,-35.596844852319386,6.759186057243733,-15.8319514139274
2320.0,4.635232895418014,15.972397202884165,3.189021771755422,26.97433891522581,7.248651295212432,24.24683195870568
2340.0,-4.9232821700493945,8.862338431144341,-2.1126356324264712,-19.249321526310467,-22.853039789198633,15.434904580500973
2360.0,3.2513196263065636,8.683891904735232,2.1071514197364674,7.446273553417104,21.059637133272624,-24.418667599381315
2380.0,-0.5174406725107934,8.865887692856607,-3.0587388790915786,7.834895847424052,-8.845647899967657,-19.610888429179184
2400.0,-3.9068363969007187,8.94580896316658,0.33534289533353884,-18.055969423788092,-9.499867407699117,14.961249902120231
2420.0,6.443471616057555,16.04016406684117,4.622321614522976,25.45263572737427,20.938024083172447,27.25676854975318
2440.0,-7.058429602216057,3.5723819392158167,-4.331008909153509,-32.08756825594775,-20.162965238248336,-15.560479207471287
2460.0,5.92098074377591,12.538988059507185,0.1424678889480412,36.23726369693294,13.04380571723463,-24.666619744624853
2480.0,-2.9855783601983723,6.562276873405621,1.0359532026572824,-32.63225995251121,8.055376353575888,13.824946857443544
2500.0,0.298634477092701,15.3537600041274,-1.0353399617999741,21.271096514422602,-20.101382397817893,25.962684595947437
2520.0,1.4829028793258587,7.513760986187871,2.916569637304076,-9.63118018482462,23.04471592127278,-11.66946441863461
2540.0,-1.9258579146552903,7.179604115629689,-4.186376937307567,-0.521274490477101,-13.518178185126827,-31.48563204126159
2560.0,1.8047364100563845,12.133663199577288,-0.6759060079559558,15.003957411427791,-0.7026873061434165,4.149624444147435
2580.0,-0.6286338352029541,8.770986469770126,4.7574318955599395,-24.658761214760794,18.601677512339403,27.85208955055654
2600.0,1.0824949876651186,14.537746169451566,-3.6220277013199085,29.284254175437624,-28.947500349240446,-1.689113072568539
2620.0,-2.722413065836747,2.4207120077067823,0.655363764997293,-35.477788567025556,14.683152798855918,-29.22709004619718
2640.0,4.096379346373754,14.212735198455754,0.00015504184244077845,34.549667592133765,2.871505648954784,-0.09790432720255948
2660.0,-5.464153894143928,8.626954857244602,-0.5386261539594007,-28.426496541456007,-16.34876260369825,30.214265358674083
2680.0,5.174234192151034,12.975602161002223,3.953526344290321,18.625704058481404,20.280414542540136,11.63104212264015
2700.0,-3.108751070336953,6.848806909140997,-4.52880647021952,-4.274806799576225,-18.734006668548066,-25.943651963773437
2720.0,-1.0949558260174543,7.677083599709197,-0.6392207842979879,-8.843479203356406,3.841790003744734,-15.044452007851884
2740.0,4.659254230539996,15.038141117653506,4.058602498559723,19.02815003934463,18.861993199908195,27.62755823967739
2760.0,-6.877946908765506,6.96833104706504,-2.598657339536171,-27.526690439400976,-24.754444439632543,15.828669249532911
2780.0,6.69743586714913,12.324570035438075,1.2188392951360092,33.693156150516344,17.463307875626096,-23.36298681219429
2800.0,-4.861188450964023,2.9537984312342376,-1.929380673762193,-35.97673685007022,-1.0570982431545324,-18.73435050419563
2820.0,2.1757302194740187,15.614842666587059,-0.9695941072287931,31.181688908208837,-16.97947400279369,22.659015927386147
2840.0,0.2084295139251613,8.554775809523747,5.0439049743596405,-22.39610233089015,24.95090433629169,23.876730388872286
2860.0,-1.1632157402443308,9.994572846925982,-4.032586791408464,14.213741357623505,-19.205077370440055,-21.13835695455844
2880.0,1.2231765056296815,8.36482483593295,-0.9804669988371348,6.033334511941771,3.5580980656126244,-25.056281964354785
2900.0,-0.8671496482163219,8.752651229720408,2.630479211743364,-17.063445483850412,16.092500381571597,16.480476836972603
2920.0,0.16995385400505897,15.319279066314323,-1.5595868300982665,29.15881657684019,-22.91569817802283,28.21392616424743
2940.0,-1.4456057545421488,4.199300577141555,2.479002229393577,-31.143598426194288,23.294149505431434,-9.801366857291875
2960.0,3.168736326839785,12.275640451991238,-2.804594108248592,37.67026205147033,-8.913542212757026,-31.12866377405726
2980.0,-5.448226385734561,5.74910231422179,-0.45114087961842264,-32.74758188497917,-12.243762856319993,4.7671447806314
3000.0,6.384651101200173,15.972705413401176,5.567033738861582,26.37915979952818,23.06736323391852,27.113516952669844
3020.0,-4.8966160685490046,7.8017152257446805,-3.094011436136677,-13.422691795638809,-26.743313585679186,-2.1391181526364167
3040.0,1.8829783037752992,7.755485392225016,-0.33704073175793814,3.254022817313962,12.186397063826753,-29.271832925854927
3060.0,2.4444794102934853,11.183719677711142,1.1755255215168843,15.168601722330838,7.474753827841224,-2.0026348703575394
3080.0,-5.362004426840321,9.012006931218123,-0.9618596094251476,-22.224404239061087,-25.379455250157918,25.60537314821579
3100.0,6.379609604157092,14.50582579503509,3.537356735726934,31.548729182305635,25.039756664099755,7.122067629482553
3120.0,-6.142073088696186,2.5241343258041162,-3.7845072467599805,-34.13176056711437,-10.185191702295507,-29.553355778655348
3140.0,3.6189575896845776,13.745027428567486,-1.4131626278780434,28.829462364082318,-3.459692921881884,-10.764311024736122
3160.0,-1.47984634448945,7.995167171967141,4.875773592903045,-30.85447343381018,18.219399137009397,29.8866116412126
3180.0,-0.2569160538402785,14.146823968791121,-2.5176738379501926,17.852303037238038,-24.03887618918461,15.934360235289088
3200.0,0.7147781312812521,6.27850887972788,0.44590123408086735,-11.29112973542224,13.02956960720646,-27.21464159815979
3220.0,0.0477687064907813,7.850309502026439,-0.7435836892922041,-1.3057630720341749,4.359370391620558,-19.9173794971763
3240.0,-0.04008908451093385,14.321412235101878,-0.9670955858313212,17.263154384377152,-19.34834818792884,16.535979239137532
3260.0,-0.6623377597905198,7.979295643508368,4.9490015290646765,-29.350145052147575,29.37462318517874,21.65330903431467
3280.0,1.950757963937413,12.809170129505265,-3.604736540271149,32.93561145766164,-15.623751047388433,-19.21455640070381
3300.0,-4.570497690921773,2.573673790820179,-1.571317427192221,-37.00590277791373,-0.628287547546859,-25.859862095922168
3320.0,6.265597725417699,15.753065754809237,3.455887017446597,32.77706372639685,19.881442529799713,17.480514823920842
3340.0,-6.09835170924919,8.532661852111573,-1.8850492696162644,-25.0353404504895,-25.159896811845996,27.851285313825546
3360.0,4.01359087763359,10.852253615761839,1.6215430719298929,14.472448623218005,15.942813900245964,-12.386795195551114
3380.0,-0.20036035263785248,7.20182549857806,-2.169812965492348,0.42848719192848805,0.14840889639462906,-30.121748381459042
3400.0,-3.625577180794847,9.065723417019793,-1.9070801290707058,-11.266076299971695,-12.371464439782688,8.843763388508709
3420.0,5.370832917786077,15.936441860079054,5.037346509801342,20.601394679645882,27.924821747389554,26.255866992648667
3440.0,-6.048493016948791,5.041314382526017,-3.1015643802102177,-30.974472390411762,-17.24074015088145,-4.53402095962336
3460.0,4.692359532477339,12.485144946581267,-1.5438892984465773,34.245546430465396,4.011395643360062,-34.136142732748276
3480.0,-3.046783708952099,5.173328389581711,2.0078860713600273,-35.74612458430582,12.089028956734024,-1.8736640312895636
3500.0,0.9169341032324257,16.22882275353381,-1.5491010237231373,32.288602081028955,-24.864499964934712,27.46135353948143
3520.0,-0.11724133898148248,7.889365436410078,3.2202994686611115,-19.49326779197971,21.237479507336705,2.8469593387100565
3540.0,0.4997871852824821,8.351543129166782,-3.0681509957060396,9.944510756930322,-6.404582585767719,-28.697960830955697
3560.0,-1.0627359561702479,9.889691716691953,-2.6547757893621684,8.49454944286901,-9.077284799450569,-5.380318728948667
3580.0,0.407795011727884,9.581688989471266,5.1166409772440815,-15.592238987471859,22.166130196792114,28.047279369528198
3600.0,1.0629396907120994,14.289680509326082,-2.2562781225820627,26.588064874091646,-20.270726232049785,13.38548661331622
3620.0,-3.3192322268881673,2.6770265959000152,-0.3569808933590484,-30.27254820578732,9.609798143018415,-22.248415497022936
3640.0,5.834368461613957,13.620437541761873,0.43404494080629297,35.58941134764122,7.758601667692593,-17.472730511376316
3660.0,-6.480315865302179,7.283205506044161,-1.6443517711809668,-31.56941442306508,-21.73011291485027,15.863736973017133
3680.0,5.78019250207108,15.100956314232503,4.809973929609635,23.875450179705854,24.975638652642935,18.790419924721746
3700.0,-3.161842230628359,6.1776840146986665,-2.704021523422468,-12.50307219758099,-10.54612043627752,-18.547402037424188
3720.0,-0.8474126562823586,7.961827939673518,-2.6585866252848445,-1.3256867715664593,-9.478415673903868,-25.217726387130924
3740.0,4.108136721174632,12.803349036901677,4.370684721714928,12.651551761570412,19.084176921592945,22.179328423281785
3760.0,-5.9865387311113265,8.481911844357967,-1.8514854462228858,-22.268093856584503,-25.523227264569215,25.753540846755396
3780.0,5.73298825562337,13.140103948596392,0.87427698761778,31.005409408777982,13.380244043455276,-14.788141282010914
3800.0,-3.7645986306009642,2.3283134092802364,-0.604334294481363,-37.112046912402015,3.4495344135264476,-28.97962288391918
3820.0,1.7564798893683795,15.304216180635793,-2.1746217693856,33.57777944855978,-19.11943406791247,12.014394032177057
3840.0,-0.8775537522566251,8.188690012944068,5.458094408706873,-26.701467054055808,24.532818522566263,29.295394012827266
3860.0,0.9189971726892565,12.135630928027746,-2.563649381081356,24.063015157660715,-15.12256698708956,-1.3015847067304556
3880.0,-1.3175031113817635,6.099174109249369,-2.863188333578061,-10.031604982572848,-2.0248577082478834,-30.63742225932309
3900.0,1.490994146433042,9.080701134814067,2.7183474496499613,-4.8257486071040585,19.68538739992414,0.3744220368030926
3920.0,-0.9576457977072448,14.90505120836139,-1.6251595849371787,19.601247118563098,-23.574111357028894,29.631371589011863
3940.0,-1.4073555528932244,6.075255371496551,2.323603162745868,-23.64236817188707,13.448595305102366,4.3951150855806675
3960.0,4.2707864777442985,12.081621307515265,-1.9073866093896612,30.56100477748948,0.8177125883177938,-30.335071073506523
3980.0,-6.6058324954444725,4.162757831577162,-3.3619481334059786,-34.38506549651606,-17.58865641694705,-9.930981504491736
4000.0,6.958695090993775,16.817436168984045,5.350967660036635,36.53194596388217,25.094475398937952,27.201631387927424
4020.0,-5.150465072759803,7.231899733191649,-1.9735115931628244,-21.991476146295717,-18.200154641291054,14.219549509385136
4040.0,1.947054843229039,9.31511320069067,-1.2344414845225344,14.411521388442806,4.056751809527429,-28.082035320117754
4060.0,2.188561540897823,8.561233266557329,1.3360607197843648,1.7662640317036857,12.693681371768006,-15.7322230514201
4080.0,-4.522134295930812,9.68001132396802,-1.4626730841297277,-14.580809433930074,-23.530182785026007,23.365911348129135
4100.0,5.562020516363526,14.899145613391386,4.37762255464896,27.52506070387477,21.393491100644727,18.896903540562818
4120.0,-4.375977748202676,3.4390975220002624,-1.8569110138269445,-31.10874155514311,-2.7313454579545393,-19.96033352266294
4140.0,2.588683506106634,12.720931823681628,-3.3815953095650677,34.351426173132026,-17.09343488514289,-24.537100816451712
4160.0,-0.7869010913070127,6.723654998532283,4.677992866043864,-33.90582976948933,29.82809348858196,16.340506439277384
4180.0,1.181843981992634,15.903885716998943,-1.5805980080221538,27.342692425668844,-16.518312869918102,30.236371843235872
4200.0,-1.7435536828398894,6.1902280293402905,-0.11994735971709594,-18.949703516275534,8.256931421142529,-16.390280087301356
4220.0,2.0453516264040776,8.46312160124131,0.0795120658269168,7.668526761677908,11.28542573315227,-27.75417126059638
4240.0,-1.8620858663487223,11.876990011633376,-2.2934747519906438,8.641920292584746,-25.29788268799753,11.076737314193167
4260.0,0.23995511466300232,9.797456831943878,4.7748274179312915,-17.434118016011517,22.589262903850045,29.946459578478684
4280.0,2.6940198505730537,13.673673001791412,-1.4155161217705297,29.7076215440416,-8.119111046747113,-4.896923422723046
4300.0,-5.5145637212665,2.6576264800379015,-3.2970321693298965,-34.9403471564924,-9.910069690412916,-28.08047355332956
4320.0,7.209525434759343,14.912564176733403,3.396038420802844,32.160311475060304,22.710328473233105,-0.8110301813461565
4340.0,-6.8789053904756265,8.064062665283688,-1.1210985486755627,-32.66309773229375,-21.447461435292727,28.236587321120876
4360.0,3.790698990841399,12.948666686825117,1.3573763979293054,22.787565022407993,9.57721627667813,4.391312771999924
4380.0,-0.6717531603733361,5.522220952060419,-0.9818207934408962,-10.6886255436989,7.259351121969155,-31.888446828940314
4400.0,-3.0591070776890565,9.148598332160482,-3.6391358361837485,0.8247216783577649,-25.815051215552906,-5.301505196753126
4420.0,4.59908783813864,14.457690437620606,5.124562541266242,14.30417062430565,28.418395859719972,30.28448419081765
4440.0,-4.221803331559943,7.051457411691372,-1.0776387648599548,-21.65020929613986,-11.731840113132016,14.157326227495597
4460.0,3.1567994344595416,12.176946694449573,-2.6187744974270015,31.798090189770637,-7.3541618381308975,-27.79927513176312
4480.0,-2.200759396889973,3.787826585982219,2.099432537749226,-35.8714761403707,18.231153650339593,-15.689598983054083
4500.0,0.9958344904046501,16.62824770348051,-1.8806900993561388,32.66619148076359,-24.63880875082586,29.269266746242543
4520.0,-1.8493227143834248,7.949308484638819,3.50711985647692,-25.27651844405436,13.251453577713072,17.89555855207249
4540.0,2.2190775660239557,10.70106973663442,-0.7455867806232042,19.79776396542111,4.0860358668684285,-26.611873046577855
4560.0,-2.657472973798383,7.202169999056605,-4.492246110576844,-5.596098319059466,-15.802907444468893,-19.65353476640976
4580.0,1.7915390170903411,10.125872925196452,4.730426053856088,-8.215950021622907,24.791353549283535,17.952365773770293
4600.0,0.6465593270394427,14.726782311927634,-0.40574916976830006,17.353232172115607,-15.61082358331868,25.73114954336201
4620.0,-4.037232521217333,3.9424809744427685,-1.1890186494834254,-29.846921882373838,-3.5126223738944464,-12.734096331591974
4640.0,6.616183185811464,12.058288663887355,0.4486068341127607,35.3739619955535,21.11846654811067,-26.75449107475147
4660.0,-7.554790425708354,5.658758031075894,-2.641064970153191,-34.574883743204005,-27.058578537007328,10.305752677671144
4680.0,6.028486942614323,16.396220551255485,4.51794425902805,26.90413234153941,14.967754058172044,31.91678521854629
4700.0,-2.697809778412418,5.785370420482728,-0.9272711997152829,-17.565796853576074,-1.9875934064992802,-6.997449042144366
4720.0,-0.3373830451636754,8.97290110548862,-4.217302188183201,10.231380441221962,-15.38335856130753,-29.381259235439554
4740.0,3.2970412000074583,10.30106115022458,4.066793570636776,0.856517915859013,21.35634598814541,6.266825433498633
4760.0,-4.163383394211276,10.263219632081178,-0.6019534532850704,-14.644882783795682,-21.529645366064575,31.08316861442925
4780.0,3.696173102086528,13.249495436891834,0.5282393915079578,23.994669504712483,2.045511277149852,-1.7718580443818661
4800.0,-2.2886220856852972,2.631070501729197,0.44017264497712744,-30.50474845819352,13.630722828985997,-32.33128890000133
4820.0,1.5746405504426488,13.845918006699039,-4.402921979469168,34.89567015508781,-22.60875898647093,-7.181363359721171
4840.0,-1.9616573172039804,7.479890834981007,4.4667632710795075,-31.50397274939287,21.58122132218887,26.870494339541402
4860.0,2.210288802445412,14.513844966020134,-0.06671315512186063,26.91863639912738,-8.299793083991187,8.507132063116583
4880.0,-3.6306683682404266,5.282622226741781,-3.7174414397650573,-13.505750483773411,-11.765598810091271,-23.975347262246256
4900.0,3.2929872338928377,8.847816451872148,2.3740911839496266,2.072537612457312,21.36819383766732,-14.016602736728748
4920.0,-1.6492126693979925,13.475736649060842,-1.3487683569768651,9.55846714472928,-19.815478113545087,28.561603516011086
4940.0,-1.8224463443038916,8.143155131210921,2.0187560253521717,-21.2181030064265,10.293894336678946,17.34762287130668
4960.0,4.633045426628195,12.091856337776504,-0.5544354770323193,31.522149328781243,9.370032726099806,-23.18924984118446
4980.0,-7.097541767502254,3.3671158113448785,-4.380035250157616,-32.26775809402179,-22.568052951021585,-19.191893475117205
5000.0,7.485823058612959,16.507646730907865,5.028161650971176,34.58315535343123,25.263158127989495,22.885707959486844
5020.0,-5.1784357738337174,7.464626389426144,-0.007242907391521655,-26.283870752737634,-13.572780471462913,23.98824770416712
5040.0,1.5088237043404895,11.409231403881197,-2.3065935995121167,21.017355736435164,-8.710890192166046,-17.91571567892903
5060.0,1.259477991064192,6.352348912608573,1.0908726927768173,-4.9747892310466435,19.260233151914687,-26.561259250111114
5080.0,-3.35010440531916,10.535045790152815,-2.3798579764538923,-5.573372367026568,-23.632055967733827,16.12190891926046
5100.0,3.6985820159156924,14.20506461825255,3.30672314428032,16.00694978377749,13.551614800361556,25.683546987497493
5120.0,-2.584420256512326,5.023952396593506,0.5390208206575805,-23.334327330472732,7.355949210884375,-7.353217077545591
5140.0,1.7131986891152255,12.153693800922236,-4.582302096846986,31.592001058732325,-18.56781948157392,-30.069064942552654
5160.0,-1.454843854729889,5.168035454086649,4.075934471300304,-38.59859249929687,23.85151457136216,9.00148038277061
5180.0,2.4998262072717226,16.821339191533124,-0.20377959347930194,25.099944049949766,-11.534338702468961,27.0194187467774
5200.0,-4.007077110689091,6.027105491509335,-0.7152744538221634,-27.542874723285124,-1.7323931706905604,3.8576320883450395
5220.0,4.589740600755371,9.956662403683634,1.0870569360524536,14.66608668335227,20.858553937328303,-28.910219170586807
5240.0,-3.398263532427418,9.04816242434758,-4.084902085522576,-1.1748680354506111,-25.61341877634086,-1.350644040675649
5260.0,0.6454183853622997,10.458093518489846,4.371309671587001,-11.551668843192655,20.23031750738022,29.706449003007112
5280.0,3.1641223619721806,13.4899153990841,0.5023064852490072,19.939575955147983,2.6403127546858283,7.79572103621228
5300.0,-6.547660963179079,2.9344384605056817,-4.702159036948004,-35.499291734939824,-16.640804645940918,-27.3484417449545
5320.0,7.2434130283955325,13.684921518096226,2.729486365116689,35.13519401211475,29.270888851496775,-12.611227486103807
5340.0,-6.398948014838604,7.194281101412019,-0.562108974522854,-34.585449531739414,-21.99540746593522,27.790323787877742
5360.0,3.922654743572041,14.882913874259124,1.033622448681301,31.969585775550154,1.0358440851765256,15.997721541780288
5380.0,-0.6626775585184638,5.196556898655936,1.0149899079868827,-18.3171508728196,14.31471744833386,-23.52167541449406
5400.0,-1.798122156855714,9.408798364524413,-4.877864532469587,4.025009091142768,-23.033885511721998,-20.452349485353665
5420.0,3.1242788075044854,12.320436584953654,4.382820240475379,4.079359739353464,22.183950819922792,24.614175342379287
5440.0,-2.644970486944096,9.044651820201684,0.8813407058721432,-16.204192820211965,-4.131929814051407,22.942649735711765
5460.0,2.158792889002661,11.874677846647009,-3.0280708716010607,26.603000905804898,-13.035613278836353,-21.08618340745282
5480.0,-1.419125285259215,3.207981993526837,1.8525808724818655,-35.98903528068,25.117864353039348,-23.552088707638198
5500.0,2.0902582987028544,15.759589739693158,-1.5870311915676596,32.94704193468783,-19.749826105440953,13.639303420015825
5520.0,-3.408527763521168,7.750826129779541,2.644732391955573,-35.68127006362075,7.83323191315837,25.11583543196411
5540.0,4.803417628790348,12.562847443073355,1.1241905586448526,24.04403337284023,9.283317891665346,-7.426771169634776
5560.0,-4.863320209292245,5.773722156784411,-5.244191430117234,-13.946112407707425,-25.35833495857204,-30.001304248281997
5580.0,2.7197835530425944,10.780917541103387,3.5993706522752604,-1.0463376690656943,22.95973160315336,9.147090649567641
5600.0,0.6356747198051091,14.040080307059437,0.8875052532669883,15.810016400283388,-9.668003914729356,31.074805370930115
5620.0,-4.162016859728368,6.061917298116055,-2.085213187466698,-21.691062181739476,-10.409933233066628,-3.295916355068629
5640.0,7.029355090173616,11.712303045170799,1.1033905863646374,29.484190662110397,25.443321557543534,-31.659664523405134
5660.0,-7.323231342099526,5.026101144770078,-3.419360865818422,-33.09961150375499,-21.247018160070503,-3.5151342699955705
5680.0,5.512588111907602,17.21051843879467,3.414920149028491,35.64430968265483,6.231009203557179,31.06161655967348
5700.0,-2.621381870815879,6.260271945303549,1.7368447228554675,-28.50112498852409,6.016484766095602,9.778041685199511
5720.0,-0.11703842632937128,10.579506179441411,-5.005009753378382,18.626314952239085,-21.30835160676261,-27.35950390269626
5740.0,1.8522382763404674,7.701679317202869,2.5305785571552346,-7.42302328342691,22.319481144185588,-13.937035448210874
5760.0,-1.887020922876429,11.617475295781365,0.15988798849859231,-5.4874169490647,-14.012811715476241,27.89039004256292
5780.0,1.5924226681037859,13.353990113906024,0.4506272818346728,17.98349149250911,-4.862714523512713,15.117843532578492
5800.0,-1.093888527154588,3.7626427769033137,1.4443828348044339,-28.30423339704729,19.625836321025567,-23.205662988411873
5820.0,1.0442731327089168,13.33247393926628,-5.1545159698376946,30.442166354938998,-25.532821891020344,-21.377097235923742
5840.0,-2.6028262495899552,6.475447913392492,3.18932956920014,-34.56212157987926,9.547565634287189,23.11801331620132
5860.0,4.887396953687082,15.966043724134108,2.286568984508601,32.76640154979653,1.45152305163219,20.153741375189767
5880.0,-5.232821503691787,4.549294585423164,-4.134287568059971,-21.728786588248795,-21.017564622940746,-17.72031806913836
5900.0,4.495737993678793,9.576471316820989,1.897201837302166,13.97827344629106,23.299282863358933,-24.977787328370937
5920.0,-1.8622096892571824,11.061065508112026,-1.2194701316202416,1.1925374263349888,-20.046834823582284,13.751573720991837
5940.0,-1.8950238531156685,10.218881732453703,1.6406989247033315,-12.128839919558644,-3.6154155434764137,24.85645558769507
5960.0,5.460702528041238,12.14995796903999,1.7140577670953698,25.393361205882112,18.668863532619554,-12.513862896494112
5980.0,-7.451917492204204,2.7652033135536707,-5.453528268599428,-32.43060759129277,-26.319732702416935,-27.805380893248792
6000.0,6.716370719791567,15.321237862039316,2.9328146349347457,32.28499055023084,14.705924531698685,5.544633079820081
6020.0,-4.187646302382105,7.8791486417898335,1.5087433140955422,-32.19035901101341,0.29573158297224234,28.934233619664468
6040.0,1.5455079055130705,13.472975877982783,-2.705777476008936,27.281006206085554,-17.240239977957984,-5.199557086420481
6060.0,0.552009516774632,4.459919481175197,1.7641643574440282,-19.64305929254753,25.901936539665293,-29.68737321193544
6080.0,-1.4427756342880615,10.624228232476982,-2.6302891046928045,5.362267090148468,-15.013083020488349,0.22527737975173479
6100.0,1.5373023347537336,13.061156468512506,2.4595157170677457,8.755700091857074,1.8830904518777822,31.1688820671456
6120.0,-0.7183924355574671,7.869793886594575,2.3196970935551557,-20.407169750851317,14.2786910867062,6.063640110293379
6140.0,0.722591154265342,10.915224559093964,-5.149888257597622,26.182089262550665,-26.0939402076238,-27.48743185926014
6160.0,-1.7414356824808601,4.108106554782792,2.194712409876156,-34.67068563492931,23.157011918898498,-8.51140815207732
6180.0,4.024497492790211,16.934753662909348,1.2749718796034613,33.4670805100533,-5.522115829122124,25.919418135232082
6200.0,-5.4603455231042615,6.670541797639576,-1.088402862898409,-33.04019768393704,-14.063523691003866,10.663162260543098
6220.0,5.846151558313045,10.742370376421567,1.0952662165152351,23.659607297900077,20.67296669420146,-27.018332713349213
6240.0,-3.9673167937788,6.583594168649677,-4.164641887224726,-11.536113552620245,-16.365031382765785,-16.34935973554178
6260.0,0.7025617903045264,11.444091093816375,2.54885507383341,-1.6160954861701629,10.169982090595926,23.01116174230834
6280.0,3.0841218045785315,13.51126898028817,2.5670923195253255,12.183876849143742,8.18623544647089,18.79030589845617
6300.0,-5.665635788095504,4.734658120167205,-4.5584828315549695,-25.017753422299133,-20.25476454487788,-17.738319225629123
6320.0,6.776381389899293,12.554714983102228,1.5139272888472106,29.291623329764988,20.832223671347375,-25.21557526810498
6340.0,-5.928367937120383,6.2029129170982635,-0.39147050438842323,-34.48093373637925,-8.875266392103716,15.116659562159501
6360.0,2.9974902907579897,16.811130111218645,0.7180719096414949,31.628185045424456,-7.394328661693859,28.050142717259252
6380.0,-0.7903517637298988,4.486447649171804,2.42021159491112,-27.073321964106533,26.19486823440204,-11.037267251398472
6400.0,-0.614603993217966,10.069917530573322,-5.194149150563613,19.755692028354275,-25.078242277865105,-30.153251863297342
6420.0,0.6397348383579977,9.79494119036889,1.9419529381150185,-2.4092948573055555,13.7612162062784,10.252559804965914
6440.0,-0.1584865841980217,10.87593968298467,2.936802936459167,-10.505025187528798,4.188463403368521,29.28425133441099
6460.0,0.06587003596408374,12.01999354888593,-3.4094248990300855,20.617912193818988,-17.025317623280507,-7.1660095260219645
6480.0,-1.046651703964878,3.04664968741425,1.3183546113937583,-28.48485605986083,26.958411945161476,-30.82432588758177
6500.0,2.9523259579016052,14.921205620556032,-2.1610216905505832,32.99300626177937,-10.454361368896457,1.1154471602069154
6520.0,-5.294922717513392,7.126254761853489,1.5270664707313804,-35.71453426911624,-2.9205078063784304,29.52805818673372
6540.0,6.508547136812677,14.488136067017836,2.7786800746058162,32.143162527976685,22.557281540514946,2.2061273532733274
6560.0,-5.820048474908565,4.2332811761736,-5.4342018198319275,-22.916429567453815,-24.497360545208174,-31.75635022349241
6580.0,3.2315308714826974,10.852577081909445,1.686567221899466,13.458874775086253,13.640863420234277,-7.385352665468515
6600.0,0.5912952346228255,12.521270148807027,1.9487277551133624,0.09189093433328321,-0.3219740484242959,24.630557019176567
6620.0,-4.350861796057138,8.533533121364592,-1.8761862643974838,-14.422781822640577,-17.763862257600767,12.945447876845432
6640.0,6.310058045501904,10.94406007953666,1.698331447169932,23.69469943145557,26.808261493094513,-23.58993821595191
6660.0,-6.267907515236446,3.996064051472837,-3.5166869354476797,-31.269086558504707,-17.30113652737434,-12.361744707063915
6680.0,4.631078567238099,16.65490478811988,2.088488341672515,38.63967577249016,0.8622197969969745,26.014209453678376
6700.0,-2.2119006602600417,6.582130883019965,3.464812222240368,-30.27662835951042,17.567690534177324,16.78919966916612
6720.0,0.00664578612134209,12.013757829586273,-5.019470649724988,23.126211231513604,-24.99291732863969,-19.64694273279486
6740.0,0.10518514484033611,5.797250755405385,1.2519512855935901,-13.140088789659199,17.623450211789677,-24.556074852792804
6760.0,-0.15871463198714442,12.363381062903283,0.5225457235562974,-0.6498145244695888,0.08822204676631484,17.485503903090706
6780.0,-0.9026439861329341,13.381305621622724,-0.6293675260585698,7.8596528956232845,-13.81424357720844,26.84817385353207
6800.0,0.40324051020290985,5.90850264360875,2.3124844756232528,-23.41239179486681,26.044442874859282,-14.461281614712261
6820.0,1.294378074778081,11.658608433922788,-4.598512206455201,29.853618796958774,-21.071882506360037,-27.490745523117937
6840.0,-3.680614938347574,6.078529118910694,1.6605726671914385,-33.65346761338689,2.1831356052026667,14.410942487292449
6860.0,6.0050728954544095,17.262690633881938,3.6589319111331897,31.31139232981643,13.006672364288658,28.760091427518454
6880.0,-6.985308258768501,4.743238117072083,-4.112754662031518,-30.179571610626414,-20.926449278172004,-12.1083933207527
6900.0,5.578652483566834,10.513283114232419,0.9132806398035181,20.032011206490775,22.60003619994116,-34.887850131524715
6920.0,-2.0579056657492782,8.872952757269818,-1.1958888089089195,-8.192053297371128,-6.947375424440197,1.7276105866175036
6940.0,-1.6727988540879368,11.860094487835314,0.27426781095360264,-5.305878400215002,-8.668812859236443,31.45808712482453
6960.0,4.790254910465452,12.521348390334724,3.3962371962998734,13.674459559639152,22.889175816451527,2.991163276857712
6980.0,-6.218403690997198,3.6760024755797303,-5.13699962675519,-26.600622699722557,-23.453838744888294,-29.66522165645967
7000.0,5.555729645872872,14.020281206533287,0.9407443876272504,34.287326540368355,8.301555968696357,-1.114096498058208
7020.0,-3.1279600845307716,7.281078271744331,3.0594310014393096,-36.604230306001305,7.474902367010261,26.7611350470466
7040.0,1.2150124683903103,15.139222116615272,-2.5314512216055665,31.12600157448028,-18.97139081234129,10.567699188606685
7060.0,-0.4695492508037906,3.856314165594625,1.5140840261197952,-27.771652086299426,19.51985791888563,-26.46544314662167
7080.0,0.255769992673869,10.918980849591225,-2.9492926994194417,20.430261276608736,-13.748631088183418,-15.336124603211966
7100.0,-1.2549148026234103,11.707072312789123,0.9454068613664857,-4.16281394787199,-7.795105188625696,25.690845507424786
7120.0,1.324100733896263,9.969387771305561,4.142436845048587,-14.887761519448926,21.098243832075877,16.249282261263364
7140.0,-0.289322262261248,10.915130187975187,-4.918293888857359,22.897227331084036,-25.79116489545937,-24.538519596429534
7160.0,-2.1809965730833905,4.131282901453721,0.4498749245559188,-27.25185442309745,15.331300508827344,-19.05721215315117
7180.0,5.5881306476348325,16.652730367913595,1.9651129353076024,29.309217996145488,3.2383415783133227,16.931135773567096
7200.0,-6.8171474143155315,6.8279259498845235,-1.5223201496208039,-35.536001030009956,-19.737142494561002,26.58895743685257
7220.0,7.054419339079734,12.851498351162123,2.4436102251389644,28.81560633694447,26.576624481604302,-13.265568914796331
7240.0,-4.352263644506398,4.614945129299725,-4.677490229891269,-24.28390727979841,-20.02603159636513,-26.328922028166453
7260.0,1.2412600283427606,12.200797376312922,0.4035080849563614,9.796089634832416,-4.087441147711009,11.546939402641987
7280.0,2.9278691189623367,12.754935400777498,4.43981089438985,3.729509878219688,15.74678481237161,31.958152232605414
7300.0,-5.53552014133239,6.726174230385814,-3.993048357720113,-19.450843804776916,-25.12185238495279,-11.491011483261076
7320.0,5.232337366958836,10.975164683211466,0.27185346127042126,24.96496030329846,16.43268994341339,-25.905899074505392
7340.0,-4.321699394555373,5.2354080829939305,0.5236090863309724,-34.10369801564955,-1.7098481825037593,3.9641979022156715
7360.0,2.692312586709854,17.12731975904619,-0.5194675804629922,34.21808555806275,-18.795457191896677,26.467774288136983
7380.0,-0.8928274786453737,4.991490310504846,3.4613082533810173,-33.104731402181606,25.759580072749074,0.8795546170479388
7400.0,0.860927003889879,10.97574204113856,-4.8696484050059,25.016247935442454,-18.374655416191345,-28.247724545046445
7420.0,-1.4688238242463718,7.231695991295439,0.05993017507355847,-12.55094313443213,-0.5453436508300338,-3.89856679225445
7440.0,1.7231747428851671,12.424449884174628,3.8149726785509737,2.331902932782703,15.464091146721595,27.914600213963453
7460.0,-1.7814563510042152,12.018571627466661,-2.6919118360584235,5.599020986974091,-26.33415505990699,6.268865344516751
7480.0,-0.14271960076077073,4.342199816249375,1.0294588992550953,-24.022466316206376,25.233466151117455,-28.594038906775843
7500.0,3.236975046213909,13.15681335026822,-1.383717565741004,27.824768277513957,-5.624019009853863,-11.951727020143316
7520.0,-6.041632126212421,7.156720255929472,-0.4498168093260102,-30.73876172683684,-16.043092140485324,24.791870420838904
7540.0,7.211650462956705,16.301853245898773,4.46133576711422,33.39059587105728,20.229168371560828,18.953434394575137
7560.0,-6.532701079826225,3.912205045187382,-4.516760928492684,-31.81354723407421,-22.362140267070068,-24.23582734859506
7580.0,3.23140807210127,10.687452911800396,-0.5094821713787104,21.19338361623053,4.131605480198189,-23.427824049595948
7600.0,0.4003681902223308,10.223923133449583,2.594386357562295,-9.875281526877982,9.800199532568161,21.808355415770116
7620.0,-3.273711458930861,10.96344194510394,-1.6151619716080714,-5.607723059091012,-24.337820460086707,21.100016835098234
7640.0,4.913146088247248,11.050934487520076,1.962788707300625,14.628536188212626,19.46667361302977,-17.71676758131242
7660.0,-4.446400430952588,3.810380903049906,-3.1345733765955615,-29.220321478893776,-8.890507905411502,-30.40917571926309
7680.0,3.2499451857155575,15.494615591970273,-0.40148455702666913,31.636294329531975,-10.95861523380786,12.670693999347224
7700.0,-1.97144711994291,6.985048684776067,5.058437798507081,-33.97601943525767,22.45824570239093,26.33589371289527
7720.0,1.3732732971824004,13.832022354593725,-4.065992693700431,29.603560811685522,-21.881226247499814,-13.044125773373144
7740.0,-1.5252162459048346,3.9406605844025475,-0.42003868010809475,-25.27324613491904,14.975907483003745,-29.57993718208499
7760.0,2.0271211842934127,11.885866146419392,1.6420684829321885,15.273274562926623,11.159998031237478,8.140882803872659
7780.0,-2.480452379973147,12.007559591913228,-1.3810797898611629,4.176066653414317,-22.082452419491048,28.75193818657601
7800.0,1.2153960406488475,7.691915757988991,3.3502737968022562,-13.406070164349456,25.340800894542145,-2.2970391376892567
7820.0,1.3492026229145146,10.73084979074152,-3.9250889427551,21.039611681605514,-15.44697150760219,-30.810630241706257
7840.0,-4.5388311527132075,5.488784452956211,-1.0532214206815924,-32.37266581809826,-1.322485391682989,-1.9973644452628487
7860.0,6.864186970174423,17.492607107440392,4.72779117572591,34.13179059936814,19.819467922771352,28.33572385258582
7880.0,-7.431645170602788,5.370016797135559,-2.8419636841760663,-37.789305583262546,-24.265320296828115,7.167836531863811
7900.0,5.444360308010753,11.39528855893767,0.3384583773217121,27.131178768939694,11.004165954338427,-29.567497894650064
7920.0,-1.8413012582981698,6.092206877841537,-0.8670750607772717,-16.10396958737762,-0.3576933220661711,-12.934728877528691
7940.0,-1.678853452888353,12.622221957503456,-0.6478697796449648,3.960614747661717,-17.291886655286596,25.05022402123544
7960.0,3.6278222047813853,11.811431752119796,4.2848072680263165,3.975358165246098,29.80586496405319,14.29262487285799
7980.0,-4.3491233104135505,4.934371196594681,-4.07558004147281,-15.517804907191225,-17.447912817307824,-22.715218274256827
8000.0,3.3552211678827226,12.148953729631247,-1.5302989899275368,27.83879243030668,2.62383400174643,-21.8887473490417
8020.0,-2.2737025815760035,7.287871481071032,4.324235800912886,-35.187785017838884,14.174289295996036,20.51189680371488
8040.0,1.6057744264868505,16.843187889414793,-1.6910242390679493,34.23494291649573,-28.74970063721203,22.199057364298294
8060.0,-1.647335725604354,3.691710306275326,1.2153643842806947,-33.234080540191755,19.43127256099971,-21.896631587410383
8080.0,2.8331360470429265,11.269754593324537,-2.3158360574853005,26.932277696899753,-0.4769813258017459,-24.889278878002326
8100.0,-3.131902770411944,9.136874684839395,-1.1585678720387773,-14.082401305929164,-12.869398688354185,15.565145973372802
8120.0,2.765804622468423,12.152707859899921,5.514844532403987,0.9722128567658015,23.950091123603777,27.086138883584386
8140.0,-1.143914677037111,10.260879044409505,-3.7945749947064136,10.134897197442502,-24.605702774853395,-11.222054836212594
8160.0,-2.1681839585963543,3.864213606943439,-1.2220308878214343,-24.69651368952616,4.719793475944684,-31.383562399341262
8180.0,5.277344719094662,14.916140336820707,2.2286910885806623,32.70805781469039,14.9172626583515,8.131156245828366
8200.0,-7.639038433196541,7.573715156182407,-1.2327427195729617,-35.103793006035154,-23.549145048923634,25.713550183079523
8220.0,6.632613130025021,14.497652591016811,2.4722515469509156,33.62112454608265,21.93093120204041,-4.394586089558203
8240.0,-4.460186480325433,3.1981775524170355,-3.2059311953039455,-25.103039122085868,-11.191953724323895,-30.478561405870543
8260.0,0.8393922715031776,11.842176476446433,-1.9720499706213346,15.50467385523773,-9.656672120842398,-3.1743481869239547
8280.0,2.1784177452398477,11.476871215395791,5.191118779839213,-6.673365929624909,21.280054343545434,28.233355400439525
8300.0,-3.6611617176458764,9.109376315719473,-2.8429475628267884,-8.081707393050582,-22.143251630512566,6.286855753613449
8320.0,3.760292345990546,10.219421399438573,-0.4768199652633669,17.923863457382854,10.010754268513795,-30.45931877370586
8340.0,-2.746460653784046,4.945730807174159,0.4481950717856331,-27.935291160691122,6.7255744515817995,-8.936718365428977
8360.0,1.7645175858922626,16.805522616621733,-1.4553544074075302,32.20769546964473,-23.81105224766772,30.635793687500637
8380.0,-1.4767445230085352,6.1193887497082695,4.109925631147133,-32.16498043209731,23.161663985054194,16.838283493745074
8400.0,2.6042618331484477,12.098088493009367,-3.4068916261445583,32.50944177343066,-13.379591536220772,-27.16548182542748
8420.0,-3.7303288842294613,4.955474490628969,-2.2711437319730274,-22.524561131169538,-7.928711016141856,-16.303456289420538
8440.0,4.082986911525622,13.41926269736506,4.716194211165533,10.20408300470286,19.676832768282203,19.014405662605345
8460.0,-2.6222373948552384,12.004760771626072,-1.9436995119621254,3.603016585913257,-27.11893894940377,20.161554604377574
8480.0,-0.11488483963539606,6.311352422249285,0.4313639719490819,-14.85591983267617,12.625923953314889,-19.881434083118624
8500.0,3.643592742417806,11.437967852507096,-0.7309286222017435,25.213499373324066,2.286510895065047,-25.828921704818384
8520.0,-6.305899736062322,6.781297067740455,-1.7477613673287224,-32.26530537870286,-17.8593952667542,17.918381277791237
8540.0,7.347592311011536,16.877184809782698,5.218937160124877,34.71107421347972,26.674725346629323,25.567949936965725
8560.0,-5.903983928727224,4.304698514858542,-3.056634644806594,-36.37717600051934,-12.485737131169659,-13.895462590447105
8580.0,2.9577407048931903,11.432388900750109,-2.052492915997362,27.35689254632743,-8.007639095930104,-28.54567791779419
8600.0,-0.3287697181352462,7.654091352900825,3.411321224583653,-19.083791638077297,21.4792359053053,11.034530887705476
8620.0,-2.1594876483656185,13.129702368968585,-1.4832030701472296,1.4464063723176541,-25.83336949219102,29.676144167900567
8640.0,3.0728510617875213,10.665998403557396,2.523378693065718,11.489873744788559,16.74070371583828,-1.1880037266784371
8660.0,-2.814009926028092,4.380773300496227,-2.062844738769796,-20.188776604251434,-1.2726157686180324,-30.45996626570998
8680.0,2.036341254271191,13.868071724272342,-2.8224489726603523,25.88990590067932,-17.061761341627253,-1.1598511714729374
8700.0,-1.5878552636974645,7.3121422331325325,5.492425518092477,-30.12959290649608,24.92349398346104,31.120323969408176
8720.0,2.011148882755061,15.200296399119296,-2.3763933703635747,35.064737543774584,-20.521158284952868,4.415192357506123
8740.0,-3.515833659736461,2.99257207632721,-1.5871166295747718,-27.814732657779917,4.8221009648861095,-31.961257313603177
8760.0,4.677359957036264,12.310644122750078,1.4579151980063103,21.26797039016772,17.537427353816714,-7.783015008125147
8780.0,-4.601673879301822,10.704237681259203,-1.6875338094152972,-14.045272242363769,-27.863818752165514,28.061072982529314
8800.0,1.9727212161872811,10.593274996195092,3.6613952146123823,-4.351209787696803,20.721159757189678,10.272334745575506
8820.0,1.5196937113061586,9.637723509792403,-2.79918930866,13.35112221881809,-3.828003152413979,-24.757768631984
8840.0,-4.991301445966747,4.8926100067842615,-2.7200102817835985,-27.264472749663472,-13.615952253767784,-15.453423593397796
8860.0,7.304672622029762,16.243133165624215,5.002613126736597,34.590869482696974,26.427436760590137,23.18645828978428
8880.0,-7.114991293034363,6.352174848609464,-1.9276410968810835,-31.595434496145618,-19.418639781048785,17.692832327626732
8900.0,5.2441704269095615,12.990773805520682,-0.46581721965879813,32.80381750040364,6.329143894601967,-21.624156368065158
8920.0,-1.8011020336680628,4.350207478425706,-0.24786333158070745,-22.7085370911981,12.589813886608166,-23.434056825813897
8940.0,-0.7826041113602671,13.807204037191179,-2.1577469783975722,13.978046729152283,-20.198448850787415,17.831621262495013
8960.0,2.3415206337022374,11.164387261395051,5.327235451018858,-3.8229051889105294,20.828341021076188,25.381352546044916
8980.0,-2.2048217335617957,7.427430956419613,-2.1495000331408045,-10.446371227235074,-9.620098370053457,-15.700597221526692
9000.0,1.5374548672709367,10.437572179584667,-3.227009548438305,19.07632995859243,-8.519135526313198,-27.430230172715884
9020.0,-0.9336955467579188,6.53305108701905,3.524159497051697,-28.124073029150896,22.63099049441329,8.579864246645466
9040.0,1.7498998555632501,17.141241149161353,-1.5147001795152244,36.76745905484559,-23.551563410382833,30.758349935039792
9060.0,-2.8978589984078837,4.523597593393676,1.3126005815964823,-33.892208185069,11.112859167478355,-6.53521375008881
9080.0,4.730220153483808,11.699222910869368,-1.043475052162856,32.4894335842713,5.970783653273202,-33.26891814008814
9100.0,-5.162066794188033,6.9508942409076635,-3.0477748404555394,-17.090429293436856,-20.8155255546349,-2.6757108316954117
9120.0,3.7246523360745876,13.696722479395829,5.416727509461551,12.156582228205048,24.458970620974096,28.690348908290122
9140.0,-1.3810731259899478,10.79481782155279,-1.4457579098541768,4.811435052554,-15.622698230288123,5.80830545195273
9160.0,-2.810175489124088,5.280818467705618,-2.6009491092527846,-14.81037521764918,-1.6686755938054212,-27.916633397465127
9180.0,5.5700327719233576,13.10287465041212,2.450115610939598,25.098567946139827,19.638138063139344,-6.104147227789348
9200.0,-7.003322796729457,7.546397533155711,-1.5648686839763537,-31.031906223453465,-28.53175356206969,26.52113607395689
9220.0,6.545968706182723,15.592213618613735,2.9420653705108184,36.134713297702405,18.23003935452442,8.688752837465827
9240.0,-3.8049331577853907,2.911765333227765,-1.5881690967193003,-33.41155670994673,-0.31086560567873356,-28.579662149971373
9260.0,0.463088926247217,11.831874721124144,-3.5271881444397124,26.75149393581639,-18.363763058568523,-14.219731340976505
9280.0,1.147045703736758,10.171386284347397,5.204144213192228,-13.222653722594266,25.836132519681268,25.07962102495793
9300.0,-1.804860581772768,11.338525601781308,-1.1314898830285183,3.675074399841181,-17.88646467699081,20.197328067036327
9320.0,1.282212476225528,9.622290580998964,-1.2958284132378182,9.577491292706831,-0.9891049305086387,-21.97979264074285
9340.0,-0.8090106869794191,4.932742022260117,1.049048219882085,-18.161136829767244,19.37849113044191,-19.88886565737464
9360.0,1.0262999658881233,16.146247547081384,-2.089990552428816,30.012348039505312,-27.70405984365006,18.977945359265437
9380.0,-1.830639076271425,6.902454193540054,4.040146648570636,-35.47325818970043,18.30431906029359,28.492140884127867
9400.0,4.171615558129832,13.739819299762711,-0.9647235360323949,31.587002142607417,-4.622612051076942,-12.507672498860634
9420.0,-5.738880728231889,3.2406764444677125,-4.193266033389861,-30.170328108708937,-16.463280430622046,-28.744267637168356
9440.0,5.6857676104129125,13.619619595613713,4.45205337668558,19.821428138330234,25.830520160848522,10.898795777990731
9460.0,-3.464064566423439,11.018987835363308,-0.9719547324075819,-11.102865816984588,-17.930863886525533,27.136353760038812
9480.0,-0.06753490630809114,8.200819055596806,0.3875249483209031,-5.353482351159617,5.989148034465009,-6.041394014859281
9500.0,3.977158564592809,9.714441442534035,-0.07514775281815622,17.33787655263057,13.841737532675666,-31.175670387205713
9520.0,-6.248141748432029,6.456396266423707,-3.19222669131799,-24.73212088215348,-26.110261992563878,4.0807212834408615
9540.0,6.980207370587252,17.12566033305594,5.124576614982337,34.22531516031823,23.64224450251775,33.371545912209086
9560.0,-5.2910256899801915,4.820428584618794,-0.8959743305517331,-33.134004928719335,-5.941118244658159,2.009026316387637
9580.0,2.6014166832366525,11.821665960273775,-3.2911528456079924,34.33355410899768,-10.759925841809752,-27.284033401487264
9600.0,-0.1110266816654116,5.6165147784507115,2.9136896421945293,-28.03611309417274,23.513768831485162,-6.544754217600753
9620.0,-0.781189226103562,14.104045204250625,-1.5557230950640601,11.095479883273308,-23.68075394411252,33.47891118920846
9640.0,0.80337884371505,10.320157195495225,1.9176083691045536,-1.6612734865878647,16.810239663768208,11.946450724717018
9660.0,-0.6079286864678379,5.703872668827909,-0.48660121644550985,-13.5240743187757,7.994716733942036,-27.525273569322422
9680.0,0.1260584209836346,11.560065308141464,-3.902079105324214,23.18553326578353,-21.588128098190428,-17.126083416629317
9700.0,-1.274519020223441,7.216364198947556,4.745907695636031,-34.63540731057651,22.16752932513957,26.678126890690248
9720.0,2.9127792420064913,15.829252468483539,-0.3475336323882439,32.38819451711141,-13.036829839368183,16.1634470142551
9740.0,-5.149387540810528,3.1252412791728927,-2.4024716770043257,-36.68818006108546,-7.082543785067167,-23.33859980720527
9760.0,6.504241212742072,12.187059066788546,1.7984599671769492,25.038599296067005,20.35690988922151,-22.301633980585294
9780.0,-5.4135704897113985,9.04059651944833,-2.191090781612735,-22.135288505387216,-24.031176227729425,21.099103255076887
9800.0,2.7848953315332783,13.07771361816545,3.6857342731234564,6.3010717185933265,10.381966082370216,22.423993197950836
9820.0,1.4555989738266146,9.119890903922066,-0.522558389001831,6.083809754384244,7.254641763661254,-16.77190485406207
9840.0,-4.574313680424458,4.702606389413659,-4.582280331020942,-15.087556087328359,-19.440166148348535,-29.181239467519006
9860.0,6.63108755158961,14.722998889360003,4.1346079710857495,24.14526368914427,27.635956958579364,12.748779707719338
9880.0,-6.417489940391017,7.304934410960267,-0.1986083002760003,-33.506951112132036,-13.690628640297925,28.07355912470659
9900.0,4.407085036378829,14.208615463868092,-0.9740121601151108,33.89026650842825,-4.165645827297597,-8.409091657110586
9920.0,-2.1785757097433693,2.7856710712348716,0.5441032806392435,-33.87849362053471,17.672872160524207,-34.253214056668064
9940.0,0.5227116069934106,13.840787575925512,-2.9204511611908055,21.643602100265255,-24.594171846215296,3.286390320156177
9960.0,0.3352698703842848,10.542951458842662,4.679143656482429,-10.566672309426568,16.546991908547405,29.42147588149994
9980.0,0.36485557436316285,9.588529996740778,-0.3006171912475722,-1.8532409707604294,1.299466710261627,-0.03146029994859358
