timestamp,ax,ay,az,gx,gy,gz
0.0,-0.14432295824218286,9.817720317233764,-0.3449587336731002,1.1875116785561592,0.06701014565324317,-0.09797455407854373
20.0,-0.40614001258988547,9.583765184758516,-4.90730059731924,10.17186308966534,-18.15812748940434,-26.535297533829976
40.0,-0.34431616622185013,6.160726002837918,3.0978001002100126,-21.710745408900664,25.021647390026363,-4.482922067989253
60.0,1.4378518901768231,16.60611363750222,-0.4368650439693773,31.87977985670014,-20.683067329335113,29.029360807597186
80.0,-3.935447444514772,5.453032550762102,0.9017363808282896,-39.884070117133625,2.529256609211064,10.65433977578607
100.0,6.158109508772603,12.31402959226522,0.30022709502647504,35.80723557027726,18.648082847360197,-27.42984808155882
120.0,-6.349498049285434,4.640595833562171,-3.9232217647249668,-26.156654006115446,-29.6359234607863,-11.942515892749242
140.0,4.903249301446346,14.337941905225529,4.500110287217013,17.985204656567472,22.257276168611476,25.746288909343217
160.0,-1.2176882266326687,10.240050087784194,0.28328943000134743,-4.956379291570591,-1.5445486096246825,17.75643620790284
180.0,-2.382724608669134,7.151225833759786,-3.3207144673770297,-5.931260306765383,-10.30905729623428,-24.22371557961862
200.0,5.322239150658885,10.770544802162092,2.184555982604263,19.992679693354468,22.13940055376258,-17.22435883412704
220.0,-6.1557803417656025,7.328325320486822,-1.7050944762884357,-24.395151315656427,-14.501600850193809,20.97506297164689
240.0,5.0495023751698875,16.529467310884908,2.9763219591271906,34.28906906224872,6.493606008480301,21.798370437715285
260.0,-3.199080904469427,3.425773424949397,0.9604311950638591,-32.93088563157246,11.485922068020184,-18.006986117160523
280.0,0.8533594981078481,12.343187291987697,-4.827216405391133,29.22518804730333,-22.806300829992225,-25.526555492925127
300.0,-0.07791228178548337,7.549239577786498,3.948796475575777,-20.48812117440687,19.756416684133868,17.75577466163314
320.0,0.661871960918738,13.914750993076604,0.5361844611647897,13.88946683699409,-8.43100597157634,27.18564491671073
340.0,-1.2673332730588962,8.881608549182815,-1.776004227287851,5.745841916410322,-9.866454789357547,-9.612046807658768
360.0,0.7679662314525664,5.389924409866114,1.298852626688553,-12.970270595652655,26.65963066690352,-28.077209424226048
380.0,0.6296067603473476,13.643766556008245,-2.634737354323719,26.07969286417421,-25.667947208469176,4.120527980226598
400.0,-2.647912891076782,8.123864590634435,3.62958735395419,-32.48681756957809,14.269347246982601,26.250127673005945
420.0,5.490943241393417,14.785185605409861,1.0683745486228897,32.20497255895137,8.670699703963102,-4.9499575428141025
440.0,-7.145220041044107,2.665908197365673,-4.639773326979529,-37.66218775249271,-21.700606222063858,-31.443711832133648
460.0,6.257146434737283,13.573905649628163,3.388919029865811,26.107067780007714,21.906543312992877,-3.3554769562927307
480.0,-3.79580535188941,9.630265434672499,-0.07631945975777263,-18.069274124463817,-16.700072212829312,30.215998661668085
500.0,-0.26465444702348573,11.394063646322804,-0.039743380668258416,4.028638596969229,-2.6418364509871917,6.990264289074971
520.0,3.768506391673716,8.713952056311228,0.5601047798600598,9.767999375849973,19.256164024514664,-29.42759597180347
540.0,-5.285300383780593,6.327128620153029,-4.194542386074507,-23.075446183155595,-24.689716449654426,-14.877831092678576
560.0,5.657691067193743,16.199406875810617,3.8725617349209394,28.406357503137016,16.036585017302286,27.03551134521696
580.0,-3.581677096842802,5.979001688445514,1.2741953894575049,-30.463325987417434,-0.34643207305043244,14.058110890066393
600.0,2.387358848713826,12.806010435108231,-4.41241699674882,34.03044532596834,-19.388279605626256,-22.083792645137656
620.0,-0.7953802944060557,3.6872262079743465,2.072958629713538,-30.40304017600577,23.51170791088829,-16.5922476511061
640.0,0.6142016296380285,14.600352163132568,-1.0775669698901131,19.702297801164566,-14.59262124473833,25.838129206356957
660.0,-1.4261657913491181,10.381458287163943,1.3002712685335165,-10.31990391647568,-1.5888051057890233,25.587246157813286
680.0,1.7685354845965569,8.14725308707963,1.2898772791128374,-1.8228696292929012,16.5977306615621,-17.578319943648445
700.0,-1.0384956722270184,10.118956009869128,-5.337461632823432,15.000161091921825,-23.029175602221258,-24.56330207932705
720.0,-1.1495602861657606,7.71529338883661,3.367007694011399,-23.691278280873338,20.982831877341795,13.815865826524508
740.0,3.7895917474339047,16.62963430191366,1.3028472130156952,32.588529443961626,-2.369126562875624,31.602851979014254
760.0,-6.2238273946334965,3.9980283904848752,-3.2085876797783635,-38.74500021116121,-12.642624492374601,-8.14389383340932
780.0,7.352015827501054,12.230748998060957,1.4078433883668005,28.4972617776053,25.23790319270851,-28.128917138155952
800.0,-5.954401406931826,6.330232598383707,-2.635147857490382,-23.668954037631956,-19.67516575935409,9.728162498047412
820.0,2.5335948399222334,14.410873260706285,2.4165476514489743,15.281922566184456,5.797369205073648,27.555479459117496
840.0,1.294393652739844,8.847849832672155,1.8374498470558898,-6.852517131015045,11.508811283442862,-4.446022100206901
860.0,-4.4934216103827636,5.865349850979468,-5.101734963808707,-10.267162650878218,-27.735401465391003,-26.395874649677626
880.0,5.4570030978089505,12.364705970105623,2.7276058227326536,21.893930497177244,25.166801722488028,-0.17935708349696533
900.0,-4.376666835267628,8.222355304634444,0.9734459023705951,-26.42480940387331,-5.49264643129932,29.501181220262865
920.0,3.2954768278212714,15.329937148365488,-1.1415711431169187,34.76768670938909,-15.311498082617776,6.653827937370303
940.0,-1.2646885158298842,2.347295589941666,1.4655303652274283,-33.60147379482576,20.861894927918506,-29.45521544014123
960.0,1.329228781683167,13.343724390116773,-3.6841870891916444,31.148815434201452,-21.889066088015667,-9.539355204706016
980.0,-1.673824847659521,8.997037381978254,3.099607096783935,-19.683918761693523,7.892909057615635,27.135496636209616
1000.0,2.4074801944634237,12.244125767816502,2.6158654494984734,10.333223786588764,9.856026894240301,16.106312926717255
1020.0,-2.068986891772968,7.719817670551858,-4.881650643997432,4.890120407052432,-23.42659327068077,-28.015342408566685
1040.0,0.9454263706019226,6.535319260202503,2.227051005479269,-13.048845752248662,23.80759822903697,-15.957717547837607
1060.0,1.7778645864789295,15.484186977794419,0.0029745639522137587,25.999607841627203,-7.731576806935722,24.51566353692151
1080.0,-5.0300797725523765,6.556487984442594,0.6145283106785265,-36.615356714831584,-7.822007417186421,20.80749296295694
1100.0,7.505607379126892,13.015087575601287,1.4819755316733378,34.91298559433612,21.884170205333916,-18.56252109371693
1120.0,-7.139051849315817,3.3209652985936864,-4.807980078948,-32.821418765340724,-24.962409453835058,-24.584566374756882
1140.0,4.734982415333587,14.743445830022656,2.869393092431321,22.241492621833487,15.329062739146908,14.394689343630723
1160.0,-1.3993082216140709,9.765131901794557,2.304179610263767,-14.706052656138391,4.4816614519993845,25.458816597491506
1180.0,-2.290371421408953,9.0374985925772,-3.9785047081345732,1.8688776880727445,-20.32401188382107,-10.855399478650755
1200.0,4.286564730613997,8.803130502244963,1.993403646055439,10.770173817126896,26.338905783574667,-26.66380109327595
1220.0,-4.6492446298583525,7.358620665942592,-1.7754473166055358,-21.735431386851324,-14.581074307504865,6.447308759590172
1240.0,3.3475120202116075,16.94205264290501,1.44184977274585,26.68430860358681,-1.5491098376970762,28.33158883266714
1260.0,-2.401534910603627,4.368387873446614,2.420124808610244,-36.67146651063847,18.09631242621988,-3.697466790841349
1280.0,1.5085980511578094,12.219293631007194,-5.476326199859566,35.72087245711776,-23.7802353511918,-33.981336404343665
1300.0,-1.8783528574277093,5.593107680280782,2.342887808054007,-30.572633936900903,19.847703712777317,3.489025309226071
1320.0,3.0612439788281605,15.141481275214536,2.100664307059149,18.501156161853743,-1.5124517161475781,29.41221367484127
1340.0,-3.4182966875988217,8.804563144249153,-2.1372811367869633,-11.034369793400161,-17.593867487031424,6.697220438751463
1360.0,2.5860394003005074,6.42723474810836,1.6040846298150409,-2.9717652895479656,25.138501936607103,-30.89801583653178
1380.0,-0.4149266362975096,11.353282871151785,-3.155228026754013,16.4023017419269,-16.711397822857577,-7.283728260940315
1400.0,-3.332430122952088,8.125856964128094,2.1101336976399083,-24.398177730558153,3.929037650089501,27.175440382268327
1420.0,6.309410862064406,15.229062156519902,3.136010266853037,33.14889358063421,18.050849297010224,14.31118857247704
1440.0,-7.18837120729961,2.573264347005447,-4.835808737774979,-32.91928119586011,-23.00301514890757,-22.431663334188737
1460.0,6.522785832005169,13.242921485159178,1.8843958960722795,30.490626342539738,20.379721725345995,-16.605962142571904
1480.0,-3.3671405214358208,8.449420398413842,1.1456505451101424,-22.71477208908598,-0.6036864425921911,22.541065308353225
1500.0,-0.0361344704348322,13.619469269141488,-0.91931447833862,10.891730377160325,-15.129162300003339,19.44684604922996
1520.0,2.5363589598707685,7.843701019681213,2.3885083480182256,1.33417228332348,24.922498992962257,-16.740908836999367
1540.0,-3.962204674696422,6.440923006129473,-4.706166918504194,-10.013746965018518,-21.489728764594023,-20.602469441853916
1560.0,3.384666990113716,14.556555827848475,2.107807794301636,21.838846707138742,8.598994018117535,18.77692520215935
1580.0,-2.808231826992077,7.786260704192802,3.437835363604394,-27.15927404799204,16.036380872281605,25.799946599012173
1600.0,1.7318632105152278,13.120149457775286,-4.396491038158679,35.61930239814927,-25.58057483505698,-13.630755239102314
1620.0,-1.5643975725089976,2.6881940158725848,1.693121743361985,-36.7916048986774,21.079304413347003,-29.761253969649097
1640.0,2.8434886244819233,14.892759914589059,-0.692576782476476,31.26714152507873,-9.754151419076871,10.865728881957503
1660.0,-3.5640208786425145,9.749411044997801,0.39036310395497187,-21.07110964731487,-8.069944213694813,28.83649065730129
1680.0,3.7527552332152867,10.778236570525651,3.007481041126653,8.853759682250226,23.159566448788294,-5.305627124762682
1700.0,-2.0455722415070783,7.876759556146786,-5.135820468760787,6.636884078246641,-24.177354725105545,-32.34568974573037
1720.0,-0.8339349551265316,7.614207209150055,1.747024237526019,-17.21144671405834,8.541902737263058,0.4132511729180002
1740.0,4.6358045012458176,16.237832433564478,3.0102443129551784,30.16033761715861,8.062144367641523,33.777597865757826
1760.0,-6.965310877603423,5.085322829166718,-2.9789340468328236,-35.27040717583765,-21.81132651796954,4.754350712912245
1780.0,7.156729427021996,12.415899497799487,1.6430213362559243,34.50776878345609,21.307571107738774,-33.011902305187476
1800.0,-5.294440442500261,4.835946330991717,-2.301171437569034,-32.66674648519018,-13.42648828473857,-7.253467115304433
1820.0,2.728960866512762,15.87205827480663,1.333172723070189,20.462267746229635,-3.432224708251426,28.149367357444078
1840.0,0.6478035494932775,8.887615852958467,3.8758508680002097,-14.082649614818134,21.17704671317903,13.206686692591651
1860.0,-2.9801989395882633,7.598719805387029,-5.175864526995151,-1.0002679152674936,-27.31666489422091,-25.14011608149446
1880.0,3.4637295893208195,10.102745877354952,1.5204271963475189,12.879416262373308,14.6157866173722,-15.976625706327553
1900.0,-2.473271204963359,8.51492198493359,2.148260419224316,-24.137408429784532,4.2511869507438105,24.162802721296007
1920.0,1.8223790512647262,15.579162621856987,-1.5968270574055445,31.173959919033077,-16.56812093849514,17.282279404228696
1940.0,-1.5020485053366428,3.0445337269619106,1.8676025353728998,-34.43822197208164,24.505234047170596,-26.076020310925035
1960.0,2.398684845478488,12.620052676186393,-3.742828705198896,37.694442636908164,-16.295671129960805,-19.311645077455083
1980.0,-3.472557345650622,7.064969343671231,1.7641630045971461,-24.244264597596512,1.9518192839245887,19.295952498563665
2000.0,4.73682978872736,14.633393421075843,3.9712067293521405,16.08407421208624,17.646822530243657,24.330578698803798
2020.0,-4.125109015847818,7.548809102535954,-4.2865926099205796,-5.257352292562228,-24.42940279048425,-13.499150598575586
2040.0,1.3210247293584951,6.954925661891133,0.8441519127750653,-9.819043527483275,20.119776369921965,-28.33853175301384
2060.0,2.178772198991261,13.321751814240773,0.7307048759872894,15.62908562551792,-1.9906533703855203,9.88202727223467
2080.0,-5.6931053665428655,8.171947459074165,-0.42894084487660006,-26.672504588626587,-18.5533846265756,29.031551493939684
2100.0,7.411774008629642,13.989836532340181,2.9952445562007335,33.67639442428247,24.150122547088305,-9.832270054552163
2120.0,-7.133203543594096,2.5177889808720577,-4.514032568505377,-37.01908282919719,-20.50820600786118,-28.49097941984511
2140.0,4.474485636741198,14.406926043361223,0.8115700244781825,31.654220073950427,2.7924816631903124,-1.1594567407739635
2160.0,-1.4014361502579329,8.796971846451601,3.760182852901527,-16.91722976987623,13.880082723860564,29.389375145953824
2180.0,-1.254818362849789,11.719078637658319,-3.53400142378576,13.113785190174443,-24.789088799691392,1.7997571712257443
2200.0,2.8683486600013177,7.362874619483375,1.2506697173914532,3.6292729717942045,18.93205581393864,-29.389319487873927
2220.0,-2.321410139792012,7.66109659624924,-1.1657202634554176,-12.084569747927594,-6.025155325838858,-6.725806523745907
2240.0,1.7501170939538093,15.277540444414587,0.45781777590628425,22.705278509408657,-12.996551207439632,32.478051532611026
2260.0,-1.2319570836623683,6.251395399159222,3.887667072325503,-28.77945635627675,24.746082224107763,8.678725921727406
2280.0,2.1709165403335042,12.445668255792343,-4.895132540741084,36.42996623892389,-18.55631481541913,-29.217214525167822
2300.0,-3.2919238557703765,3.8667179505597375,0.6587106560006841,-33.17463850583457,10.462990353082965,-13.820377731661152
2320.0,4.4101688676215005,15.856565616160584,3.0980320905808,30.004879523307668,9.438429083266234,27.74352056639453
2340.0,-4.88670268086354,8.832352111933979,-2.1297507331459586,-16.68136140859211,-23.04946251103843,14.413890873690859
2360.0,3.597137127477144,8.380827825603392,2.1953837269725947,5.848797396232361,25.02440271844456,-22.476521285758533
2380.0,-0.5822008188382424,9.172379261941483,-2.616125402651981,9.342852447866663,-7.461361455152794,-23.799714977597024
2400.0,-3.593483550474127,8.68422824021709,0.25151784068411354,-21.710763975978217,-6.992960899359548,21.471724599247178
2420.0,5.943027536922742,16.18428890747873,5.072509328546972,27.801335248091977,22.374872224124918,22.476676950454333
2440.0,-7.426130647299447,3.50983594791146,-5.098680392870808,-32.398188658687,-22.053501749648067,-18.045574579839045
2460.0,6.082381579803334,12.664073757828687,-0.017926620328545737,35.62313663362159,16.317161619636295,-23.93788910373769
2480.0,-3.2891975971098844,6.36492097698826,1.7994192590913152,-30.6192590079097,2.5503912554437886,12.55446851499975
2500.0,0.408863677915757,15.672369370355337,-1.2273316127614868,20.3949367635822,-23.458739915806607,27.302169206331623
2520.0,1.571749709204233,6.983592656940788,3.1176200161408674,-12.68685818929588,23.22527431888428,-9.918947938874302
2540.0,-1.9999082210053176,7.027015468340253,-3.892866759841297,-3.338571489602455,-11.828437013501095,-27.447758345762075
2560.0,1.458969742070841,11.951781148237739,-0.10875487965842191,13.5187095230364,-4.8194906065703575,8.77529336092764
2580.0,-1.054653796347517,8.6675748956177,4.483124551870181,-27.60954828371267,21.260424287164373,27.951954843325492
2600.0,0.9269073757604129,14.097260471124285,-3.6686562449761437,34.95493672416094,-27.76786776542681,0.8879776841075827
2620.0,-2.7744742272779845,2.3045284675136712,0.34705369429258254,-35.7869575762047,20.606061478878363,-32.6788021809732
2640.0,4.384753974218975,14.351071781075762,0.11590292516879055,33.61484277016861,0.6906556702286253,0.6543167706179673
2660.0,-5.525273246426227,8.48958902394246,-0.40412465822667143,-29.634055592857045,-13.327075294243048,30.119778268982046
2680.0,4.849710774938519,12.793836434263076,4.078887646505673,16.765689835657138,26.416138077475413,8.292818625373725
2700.0,-2.617052270494762,7.08018988416752,-4.119345188008402,-4.392648280038884,-15.51358943867016,-28.864295016304855
2720.0,-0.7211822204949545,7.72219293542063,-0.5182927075184434,-4.7062643150968695,1.955192960541596,-8.549008322153124
2740.0,4.799083920710301,14.604587396139262,3.5503909469747277,22.47860769103882,15.219664510656916,24.544451105211213
2760.0,-6.5092060125854445,7.212495393350418,-2.487510388952409,-31.02096147820804,-27.047435555638025,17.20388806253217
2780.0,6.755813332463083,12.57563789295999,0.7420326685963189,34.06267037326483,17.2051989764284,-26.36274065925745
2800.0,-4.997504048136127,3.3288505513819318,-1.9341164951942094,-36.4216352110194,-2.9855914851354832,-19.64897039680758
2820.0,2.3726854953613987,15.802950521624856,-0.5054809946791541,28.87053419195227,-16.204893317008857,21.173643405982855
2840.0,0.0197391388054958,8.909020221322661,5.092144361535299,-20.19459275327053,23.281524023181422,21.994758199893596
2860.0,-0.9880605391436537,9.82038379044857,-4.159016629177779,6.114366612011756,-20.24406045735549,-19.325048999408253
2880.0,1.4219364465539148,8.441043303656894,-0.9842299495749159,2.6292711736825387,3.240271158848294,-24.617667762576982
2900.0,-0.5065014516486589,8.824101559851238,2.248376083084967,-11.098546971086597,9.181440415356693,10.358148705006439
2920.0,0.6105699977549043,15.861310430769146,-1.299701390786393,24.14277439517599,-23.242596383652064,26.265059204584233
2940.0,-1.65547017396713,4.285279395558331,2.5464569219956807,-32.88379333921673,22.442516128057214,-4.1257252987529895
2960.0,3.2174757179457325,12.512100649549986,-3.258100047232983,34.8771342798776,-7.114968865620209,-31.277450891717724
2980.0,-5.3744356308991605,5.621739081432875,-0.9822741086786075,-29.816008493164322,-14.367880725307195,0.8954478954026293
3000.0,5.811503470069574,16.11896391791313,5.587575045406075,25.670594479094028,24.51569266215446,30.166563227488286
3020.0,-4.808509649969957,7.556170055370572,-3.3643309155674324,-19.70006310223721,-26.131773374154914,0.6183882629828392
3040.0,1.5960035271406823,8.045578372984641,-0.6392227987473014,4.294149428633006,11.79745399844515,-28.78830301886366
3060.0,1.9684734050186277,10.90885512516898,0.9637275568114819,7.81891344177646,7.79393927661479,-4.4739677867138266
3080.0,-5.596301175100459,9.01706021624445,-1.083604690970971,-21.433052257221036,-23.417748552039573,26.256929752107734
3100.0,6.949858473990467,14.681867677483357,3.8085238735062164,34.077086108437214,24.616982171146578,5.46337141105718
3120.0,-5.864815763095987,2.4553311828326456,-3.4757813901289536,-35.460670703304686,-15.308503904255558,-27.37596293436093
3140.0,3.798084218702091,14.068638151191893,-1.6471094356559017,34.12678416746409,-6.06749778484571,-7.6556421535320265
3160.0,-1.2497970407288506,7.74597309082974,4.691618180727849,-27.36094867873043,22.99052309216364,26.889581074069845
3180.0,-0.2206883991241888,13.963632053298326,-2.375164409434048,18.922274281726803,-25.141658396413135,16.14557037222119
3200.0,0.6336523188197533,6.6389055268964094,0.4729037692802287,-9.449471863446288,11.767669586607752,-26.163566982332043
3220.0,-0.09054108887241505,7.586169806854912,-0.8005517853121873,-5.835352866205746,3.812379289468864,-18.235616053332624
3240.0,-0.38659431425877655,14.077209789378237,-0.7505284782883669,19.00918560227344,-19.634274246744653,23.634812276208617
3260.0,-0.9583865960568864,7.988475627159858,5.138463088562992,-29.29258628900724,25.328546755908494,23.618414189879125
3280.0,2.0949091872060874,13.316459403502494,-3.394337117675259,34.09515977500053,-17.4655931846502,-16.979312208738516
3300.0,-4.910198930069558,2.6161350216742267,-1.9203152694972125,-35.02881936692168,-2.4794570750052096,-27.242323759939275
3320.0,6.028114203907034,15.633849259758236,3.7955682085833944,34.51020232709247,16.69713410816352,16.760282590917083
3340.0,-6.095953560808189,8.632044883026474,-1.83385481399033,-25.17032339502758,-27.23434285716952,26.425983307905934
3360.0,4.401080977505743,11.029672452310677,1.8938380617377315,14.293277076623852,18.037047228656373,-11.116041558693428
3380.0,-0.42230246463604215,7.227016611091509,-2.06315225284814,-3.4788752810169807,-5.474449598115202,-26.784768758707866
3400.0,-3.48776210757186,9.309144024796923,-1.8004160263497695,-9.735825563500377,-15.5974750692032,7.6635363561207255
3420.0,6.011834497448087,15.611829857292411,5.074154046628397,20.23390662618175,24.553305834361616,28.94557706510158
3440.0,-6.526069013684033,5.477755581070718,-3.13693624727578,-29.274040422053105,-21.007743189958344,-0.6340479109655366
3460.0,4.731349935119318,12.290819617982871,-1.2263130302696468,34.79916224901322,4.905409947819526,-30.684627195698628
3480.0,-2.9248959678927284,4.931732334676566,1.9077238850731237,-35.513621437076864,16.111250094404465,-2.312211862861771
3500.0,0.8792943693455324,16.21553839308127,-1.6724735997155178,29.250005531297145,-28.058434190668116,32.813627561425946
3520.0,-0.17897313055600342,7.595168696205708,3.6657441640182027,-20.655266819772923,19.944481101279067,4.722664015963684
3540.0,0.18607999541866962,9.010711034114902,-3.112921643416251,7.8150972371161185,-7.760798056455807,-27.448541821755047
3560.0,-0.7743786431430172,9.878815828973902,-2.234029849860251,8.37656265032118,-12.191070717801713,-14.26462355159805
3580.0,0.7676275112200855,9.609128269820783,5.020538873940068,-16.871244570264118,22.478820276903246,29.3445684201979
3600.0,0.5382100537814292,14.944903463383012,-2.224130067817936,25.8933468487661,-25.605056854155023,10.64123713751352
3620.0,-3.3766756469173136,3.007214585142788,-0.443660750688081,-30.109508902535858,4.061254353192778,-27.031471647478845
3640.0,5.772842987293694,13.146263498385302,0.27527250065168607,33.67075979704809,7.963674155839982,-16.2316921222592
3660.0,-6.857080711356979,7.2850052923597,-1.622039930310732,-31.766687802844874,-24.218621530239325,27.033344661239003
3680.0,5.6995991733653595,15.00769839062715,4.880729441885985,24.136040018904918,27.60185416437944,20.175866882240257
3700.0,-3.089515093246854,6.262825308092252,-2.811728526771679,-15.73842902264801,-11.174450716986899,-18.073153926223867
3720.0,-0.9787316073027473,7.8873126255196615,-2.6598122909213857,-0.5347286682940088,-7.5714681544808915,-23.605158336725452
3740.0,4.067271090405327,12.90321072569699,4.3619566941970715,12.11473257940038,24.678431692292122,17.793862651760158
3760.0,-5.8974988705799545,8.800159923305745,-1.5553852446851884,-24.767891610670006,-23.160252793720282,25.608048079163943
3780.0,5.294216158440971,13.164038952287115,0.9199949282359803,26.73299607779117,10.516718338368126,-13.943351079954589
3800.0,-3.6300933753830957,2.3750354720437916,-0.9141979881540423,-37.8606435404388,4.15105610101354,-30.01926290371237
3820.0,1.893827545816193,15.34553252202155,-2.3359614226498513,35.7244884793521,-21.827957149768718,8.2028374883425
3840.0,-0.8351900286398863,8.132812203701652,5.408129600335522,-25.029797933438235,27.408890030426043,29.129878362086046
3860.0,0.7636745800838493,12.415525669708755,-2.3194156702858764,22.84886328577136,-13.167548907610977,-6.147704878906984
3880.0,-1.3603453549427225,6.288278801651572,-2.8527691186202904,-3.4494028265249983,-1.9675766675722408,-30.48072679129732
3900.0,1.4241171735207638,9.017419931626442,2.6845123999236775,-5.140801207163435,18.666355082881044,0.9172648004335735
3920.0,-0.8309820830194369,14.955067825990005,-1.3540854523661938,18.073005385782714,-25.17414619492575,31.720983042183004
3940.0,-1.8643744860483644,6.170310078104098,2.5932058986322857,-27.784351454036685,18.231677306838414,7.956451991543155
3960.0,4.473876918678877,12.452690291165988,-2.1153176234880826,32.65315037932226,-1.6383997515664273,-29.618272461568512
3980.0,-6.960797393896905,4.155055491285871,-2.9725599347973466,-35.615183978915205,-19.467316904847102,-7.99568924795552
4000.0,7.12814672194225,16.976756356639424,5.002867898068587,32.102303634094916,21.6923220657788,28.82995930748129
4020.0,-5.167987326650065,7.442423146001901,-1.91403797213039,-23.48534985656902,-16.26394518997522,11.117796342360796
4040.0,1.6786237454356006,9.388248807191284,-1.460459863276165,10.42440783372183,1.4572480113272865,-25.873693177756927
4060.0,1.8193159016082092,8.340344376991327,1.274403293616538,2.720158920817088,13.70932899882961,-15.454936030204934
4080.0,-4.554494458160003,9.893200187204487,-1.925755508258823,-13.353624000464595,-27.81341694453973,25.654379728800237
4100.0,5.291933607752187,15.106133942115816,3.9511147456134452,24.10244491597002,20.85537077263055,24.761899761459915
4120.0,-5.056275170368899,3.540034201079636,-1.812688603145916,-30.27609193849942,-4.9730981218567845,-21.46408595854273
4140.0,2.6803440394856843,13.135481045657789,-3.5143486129577246,36.65361587928403,-15.34132968746206,-20.304481736504044
4160.0,-1.2580724186270302,6.8301582663649425,4.678567671918789,-33.98077231640824,26.612508868245545,15.8964684759584
4180.0,1.192760608146259,15.813852674070274,-1.7544162593655268,25.19688756933214,-23.967623210849013,27.140365287723707
4200.0,-1.867904224739566,5.924084213734926,-0.27929993151824634,-18.216767180280332,5.386623739598538,-13.375478979214552
4220.0,2.304005574936787,8.313850638359174,-0.09295437587969248,8.647128858064244,9.75895312815657,-25.87233787164454
4240.0,-1.6277125171956779,11.97029704094674,-2.6100909558509793,6.077151058950356,-21.05704109534578,13.167268022482556
4260.0,0.24726453260992942,9.31655360364273,5.005652693114403,-16.25808560802267,23.213803863014117,29.07481336547272
4280.0,2.7595980315195026,13.124139337856862,-2.1272909182628075,25.994410637253985,-10.365864630093473,-4.973062980397481
4300.0,-5.97080688959389,2.5712451466123007,-3.8489160080915816,-34.7774954081105,-12.668784850238621,-29.64565010755417
4320.0,6.978463176325495,15.132523806113683,3.116100103099935,32.411342537646924,24.32440525917204,2.9065872229419063
4340.0,-6.995149420726196,8.06584019025079,-1.163892143979042,-30.94295192844265,-26.525782674411566,29.378394194359252
4360.0,4.07920926267459,12.810128896550498,1.5540030125018023,22.11042914705287,12.266608306927706,-1.2839094146161667
4380.0,-0.6892753243914282,5.725929313559265,-0.8457954469723139,-13.553917129027349,8.650115294284287,-29.482666657229892
4400.0,-2.8438334000440775,9.026762533527613,-3.5604320657399855,-3.63863225888861,-21.6799168004837,-5.979388074566173
4420.0,4.769468309007869,14.534433232875104,5.517703375800537,14.127725603215264,25.29419198694418,29.917198267942954
4440.0,-4.423146336604634,7.3064446011578195,-1.3326870073651687,-29.69366864634935,-15.170874249876071,11.456267845096614
4460.0,2.913186364090171,12.236161335725404,-2.650913991327387,31.366393576490037,-4.07614414473869,-29.90001222686267
4480.0,-2.322048634345162,4.031835621557,2.0156431919065425,-36.38782588120379,21.557444021878375,-13.824794638209314
4500.0,1.327844758018555,16.545553133675938,-1.6836278705714003,32.40362236318444,-26.17078412796536,27.41187458028657
4520.0,-1.8180746333144417,7.164782781049196,3.011676153873274,-23.507971930528996,13.997867131977175,20.474392078675542
4540.0,2.6471191528766718,10.242843776248987,-1.0166203163427021,17.38436411147539,0.5415294982550818,-19.25856964604065
4560.0,-2.6795504222579947,7.4981588885338,-4.452803160199258,-3.2598379211368966,-19.34267631593608,-22.435964456490858
4580.0,1.5297697180066283,10.37363395348571,4.566812709704976,-7.575980417032466,24.76598867552342,19.875419914376334
4600.0,0.6067639954487305,14.546200312422462,-0.6457078473463788,22.25976093529357,-14.29028368838609,25.157462146595673
4620.0,-3.782070836175721,4.681299618763727,-1.3209716362647743,-25.19077152696226,-3.7180393618550944,-16.62276005261266
4640.0,6.698847369873612,12.776453715848048,0.762828983393718,35.50363302036494,16.162810468946986,-25.706039868863126
4660.0,-7.6626116782600935,6.320530930569777,-2.6125081552951066,-33.27869270812923,-22.684472559653603,10.660967958246799
4680.0,6.275405686562419,16.632120007031997,3.9939765765342936,29.907718058813785,18.613825461023563,27.26538131257372
4700.0,-2.9192986954976043,6.01249782330867,-0.5532896500857504,-20.26371125299391,-3.694739474305308,-7.58450471084044
4720.0,-0.6970262424902679,8.79905134120354,-4.298699958615716,9.876806431832744,-15.805898579059884,-29.631227957794415
4740.0,3.2510720916384677,10.358089733404443,3.58197966796304,1.6256484965380325,25.32013486950708,2.6063405748058077
4760.0,-4.4820277010988105,10.387206987915821,-0.8297450547821894,-14.161058733995104,-21.751866200069458,28.9171194517388
4780.0,3.4513235212131117,13.84099935707396,0.7376475411078268,26.45023430781512,8.826237265336008,3.7550067441640924
4800.0,-2.322580531966805,3.0917580443452515,0.09014869201532019,-32.29892936444081,15.842764562950773,-30.055165842109243
4820.0,1.5039330575864107,14.580038910540269,-3.7434633570313363,35.16327928644438,-27.962897254593596,-5.708050899735213
4840.0,-1.6696406517233502,7.48579951986829,4.973726114953812,-33.056869453795166,19.55511146548668,31.627506637714543
4860.0,2.691368628113193,14.097309218348993,-0.035602766434628424,28.032848924175287,-8.305632116261961,10.656705916118156
4880.0,-3.558703817474689,5.267227620682855,-3.4183778355969143,-18.303058919111823,-13.065752410571495,-25.81448140719671
4900.0,3.531750982002156,8.947800161825812,2.4988569783677876,5.891226731847249,23.719122469088603,-15.770441342036627
4920.0,-1.75680175269984,13.401400788167273,-1.6253139473789504,7.792613281526169,-25.41937374376655,24.380358387826796
4940.0,-1.4780575163631648,8.227414950914572,2.3447354877968256,-21.250418015484296,7.652846723854735,14.536105510699784
4960.0,5.0937626239606555,12.121431007132177,0.2897272740426288,27.67203433818821,11.202999817720114,-26.520869410744027
4980.0,-6.99928549219663,3.1916468038108854,-4.83700769972248,-33.8021027603941,-25.15998188150096,-18.881155479760945
5000.0,7.294910625121071,16.481608587040935,4.851667214903529,33.74642885402032,25.749115762345983,22.528761006526423
5020.0,-5.339154727581167,7.329002133960155,-0.0640873361866722,-30.78751778093449,-12.250374025995956,20.928439911634033
5040.0,1.7049106916737249,11.491253490844052,-2.1881704505812714,19.56312201501516,-8.566161858765133,-18.302288107143994
5060.0,1.151208401224303,6.229283301624669,1.2930581883957313,-6.590125907274466,24.07533671959169,-23.699586160743127
5080.0,-3.139574884288706,10.768215326384924,-2.8138007904917237,-5.406874183282211,-21.705023957011413,13.6828812953855
5100.0,3.2358914220952544,14.335023673538862,3.293228080284563,18.710714865401506,14.05317036558393,29.505646444006103
5120.0,-2.378583323936415,5.592943167515738,0.2600883456814531,-25.731434054177143,7.273561563230555,-7.14879804265109
5140.0,1.9075318600618032,12.024457578670294,-5.111339471661672,32.862802122169434,-21.814192299768788,-29.903553357772928
5160.0,-1.5784124381290845,5.286739252839935,3.9621038213485713,-35.31226256313869,24.464424930056726,4.282878578255462
5180.0,2.378882980444021,16.917143154751326,0.36085458057938147,31.753766977425588,-11.503385559741668,27.163999986892314
5200.0,-3.727117383604896,5.959937576058255,-0.47705242661485375,-23.53875675041022,-4.3756105121688815,-4.20509888441302
5220.0,4.125783717331675,9.464631161262197,0.9188209905594251,17.26469294474936,21.096656546403146,-27.195319459599443
5240.0,-3.0842745228008304,9.361685945231818,-3.762604151775147,0.7732980575539097,-27.516819002279966,-1.6557028778242635
5260.0,0.550711564842964,10.948701729128462,4.129250664654937,-13.677082510561847,17.51698891502576,29.15232204255304
5280.0,3.0972523839515747,13.73257690505721,0.7653571383672062,19.973778699803624,1.9634935529641875,4.106058262447581
5300.0,-6.109526615082654,3.518592936760139,-4.130149141851771,-27.886595608812264,-15.854479384719909,-32.15090501853247
5320.0,7.584342153404383,13.541217586444688,2.958221265566138,34.604763882319894,23.788292223772036,-13.736346060797864
5340.0,-6.969031742085001,6.958278803664106,-0.7864323126020002,-33.11872041704755,-21.25711666048523,26.667131337546934
5360.0,3.784043138900057,15.058033016659774,1.2361446037286952,29.418422132906066,1.6303865555014738,17.13413340770629
5380.0,-0.9857771815783287,4.781688685193528,1.0819185951364199,-21.61582945931976,17.03809509282199,-24.6478575383646
5400.0,-2.0651755688047198,8.970917242747133,-4.989028435169848,8.315330014987154,-21.405827422395824,-18.144154380245226
5420.0,3.256261502142598,12.175946797981387,4.075803653344868,4.015756156320077,17.4136610886665,19.248111847526314
5440.0,-2.7632125112829438,9.6764633622844,0.7488071093952411,-21.41039426407142,-2.734627108779531,20.050582375098895
5460.0,1.7183149898799177,12.304824674517484,-3.630755738651895,29.641654428306673,-14.852707887196805,-21.52473145066667
5480.0,-1.1640199230011816,2.9251696125197615,1.8374657720677965,-32.86472470167571,24.712753201552992,-28.865791451477868
5500.0,1.5840315861018162,16.022677220838162,-1.860882163305716,34.34664858657349,-22.797133118213672,16.14185005701016
5520.0,-3.8253611073633103,7.291891769358524,2.630849909785284,-29.71744045919875,2.5933121244767148,26.535367380976872
5540.0,4.569822574621074,12.424356909890204,0.9700275198743469,27.230418463580264,12.258737521308593,-12.267528955516935
5560.0,-4.790295444084126,5.590716842687929,-5.211397143198545,-16.87290776095676,-22.0963799830082,-30.68167401686791
5580.0,2.7629019340616554,10.419206080630397,3.638754736565956,2.235603023836762,22.303347090277907,5.235839810433336
5600.0,0.7213220109783055,13.84239171924673,0.6277134560099061,11.773545161454958,-6.404686734318552,34.2844369038429
5620.0,-4.407674592064224,6.246858629093274,-1.27041306721677,-23.047638880745172,-7.313784225491595,-2.272243260869295
5640.0,6.373545081045641,11.616902877241971,1.3733114578807388,34.654352938141535,24.27760995415179,-30.719766139759347
5660.0,-7.192059388282698,4.493645814196968,-2.955131676998836,-35.67018461746002,-21.623716994776416,-1.7911301433085984
5680.0,5.430318180449596,17.273402071572068,3.31800624898791,33.42928689128854,7.569009814921652,27.9363733483223
5700.0,-2.496927309923676,6.130560790875127,1.545557044919484,-31.310483292430934,8.858746894994745,8.136572735469436
5720.0,-0.3442862354377334,10.106107872362859,-4.731153225740634,18.154136126738134,-20.759225344885746,-31.121740365802165
5740.0,1.8947841812739852,8.061030225972324,2.337985527646345,-7.048060296729831,21.688959683224105,-12.659276502074235
5760.0,-2.0415705760135565,11.449475518832093,0.5109279886819815,-5.724646765500162,-12.587664199737524,29.317301743984736
5780.0,1.47873462329635,13.850002071064575,0.27356351702636683,16.379047576310803,-6.727326116058533,12.022660155501889
5800.0,-0.8487568082809802,3.795952945786531,1.295924448432309,-25.999926252119778,21.69624141151856,-28.229923415248294
5820.0,1.5065373335584855,13.249434256407204,-4.707106973040263,32.81454766150271,-24.339129830221463,-20.50995041900874
5840.0,-2.697256766952309,6.848805715382753,3.514031645658247,-34.07879805280397,14.116532540189793,20.391080858398734
5860.0,4.608023149476338,16.490832277187685,2.0673667645764136,33.323702150842195,4.104294485402341,18.774529984138695
5880.0,-5.605223083267146,4.849189225983354,-3.9611748183663895,-21.15352056445968,-20.43330802908044,-19.919952742240493
5900.0,4.508704746907536,9.472186435156354,2.0089955135161626,11.177860141829584,25.060774590466128,-27.109244157210338
5920.0,-1.7321954567263342,10.864492327578004,-1.1119917780656698,-2.5995329778997975,-21.527520226787093,15.161960188644453
5940.0,-1.8081298154964345,10.398255141435463,1.3249783967562294,-12.093770935664299,-2.1919578660917236,26.091372344484945
5960.0,4.975384571104575,12.058734746781964,1.714358591971159,23.57336992273737,20.430086403418915,-12.751454251879398
5980.0,-6.888010506108088,3.2729767550567335,-5.404522849408013,-29.926499601035857,-23.43459438746478,-30.705710790146583
6000.0,6.856686250487822,15.6828315509016,2.8974853792239736,34.997023736747614,17.968864268236697,6.795515396660941
6020.0,-4.428893284860194,7.03330599761469,1.898677630666784,-34.83309367782372,-0.18600420165726883,26.417036409051114
6040.0,1.9507329601072305,13.380335647239088,-2.403601335056654,23.166553306421722,-17.11905632222196,-6.673230037778801
6060.0,0.5986140266072669,4.426809809483391,1.6777466923722764,-16.632991076954,24.56334845387103,-30.004509401847418
6080.0,-1.883123893941061,10.550946032389094,-2.7876461644871187,5.407974739814469,-24.12361842837636,2.4185201740907427
6100.0,1.2967291416812827,13.261501723957208,2.071263411542457,7.445742963623533,-0.8782009549321774,31.5155041424658
6120.0,-0.6471577088461504,7.404958464551142,2.003558771448189,-19.07925386678006,14.4064455295911,5.137919604951586
6140.0,0.6595190313581238,11.444738744698736,-5.5267670661713275,30.212425324077216,-26.671414855008905,-26.106024670341693
6160.0,-1.5356871842651656,3.9740475078376294,2.2010534976464315,-32.74282993988116,19.930688213796234,-10.679604967872935
6180.0,3.750851981958473,17.222760119937988,0.9966507964217806,35.327306166453326,-4.504086891459,29.791661601937754
6200.0,-5.46160697480499,6.191322709077244,-0.6583768144468081,-29.41493658802707,-11.936530747533556,11.494119827725886
6220.0,5.823909150365184,10.815463955615439,1.5946252594462065,25.179152075267606,22.099718210026154,-28.550722457438244
6240.0,-4.180281010300797,6.64376668415261,-4.0441717406869255,-11.462423642151217,-22.401651219118097,-12.557177995428997
6260.0,0.8557675236116306,12.010257341285516,2.9151882945200196,-3.513501690344694,9.067790726787875,21.43340123565304
6280.0,2.656848983801293,13.341169155630508,2.8532902387474866,13.479101762296448,10.5112329094226,21.725871862665674
6300.0,-6.024384387949831,4.7219049880459725,-4.392344179364552,-23.438233225234512,-22.790231409351176,-19.52290961902427
6320.0,7.115358859080621,12.453702984411388,1.3017992959741052,30.54044697840427,23.779310652940485,-25.112211536389836
6340.0,-5.762653616787445,6.12028480348145,-0.5360764966313334,-36.12947755366251,-13.794569205122077,23.137712824366076
6360.0,2.97232586522142,16.92952464339372,0.5641416422586008,37.253344742717786,-6.322936508776221,25.173590382413774
6380.0,-0.816488008414422,4.944639994347884,1.9996717704604594,-26.395225027375574,22.470031089413222,-15.128332371822214
6400.0,-0.936926719108315,10.102632943529857,-4.93796856956394,16.431918468812913,-25.41108361374024,-28.239370974047166
6420.0,0.8606789704443061,9.861821857044047,2.2809982092922905,-4.754290032703666,9.681347592595348,12.9320103515837
6440.0,-0.5611330073694896,10.857595683780046,2.6813355999588344,-7.658411261098821,4.850918887237801,31.531222296464264
6460.0,0.02879972381360834,12.349655915470487,-3.378414196055055,18.884012834047333,-21.708609444245806,-4.6357289649331435
6480.0,-0.8355022165807715,2.9703348877123794,1.3525871422854818,-27.64154534941967,26.972315923687933,-28.76778084470205
6500.0,2.635243103438292,14.608410006298628,-2.3583583469461016,36.75468762589204,-13.280217364878645,-2.4921530244192915
6520.0,-5.145991217408919,6.900156232471401,1.4483185715122973,-33.38167243246735,-1.889292064754088,30.892438961332385
6540.0,6.171083061195844,14.351676115617988,3.0508194512047484,31.755388228735008,20.636103743516117,5.355256874149071
6560.0,-5.620813965582626,4.317197930008689,-5.460467422731847,-22.656600395172674,-25.64957922783133,-30.418455531351142
6580.0,3.4251921001201353,10.562286312058301,1.8611338011334821,8.91153698886243,15.362869553654097,-12.11806314790714
6600.0,0.7816104360984524,12.321086502952891,2.1309971290039718,0.10639140534878866,3.855730790390008,27.861978496592016
6620.0,-3.8476374209490345,8.575775338510072,-1.717810963491123,-14.898284472264768,-16.750603553214866,9.350690542645093
6640.0,6.290433463256188,11.29383472582488,1.587250965954947,28.773586251741342,25.050098687319814,-27.418023399601033
6660.0,-6.20633808331428,3.8024079678952876,-3.196440639106734,-32.94620829375322,-17.498068575414383,-18.42412621402876
6680.0,4.884282768979242,16.93516591095607,1.4638593378053875,35.51023321005487,2.4024627749488454,22.867192823440817
6700.0,-2.3847171091996686,6.482507408540694,3.577137544890647,-31.111806259602297,19.224344865173467,18.924598431033708
6720.0,0.4687531612126634,11.918029586016617,-4.985864872354341,22.505978384534675,-27.046140535878198,-19.718989032590486
6740.0,-0.10352588292716602,5.387531218396846,1.571264701838078,-14.704592551284586,21.868366145855568,-21.193138391384824
6760.0,0.17314014326822239,11.885743023649384,0.8287203042334242,-1.0101987397674428,-4.796852933527438,18.62444657176646
6780.0,-0.23974956533931713,13.144688000571646,-0.6240239020901992,7.601307385382621,-17.190449156863338,25.74369741081858
6800.0,0.4676841499646869,5.6911118597038755,2.436702240509045,-21.782612865140706,23.88413479440863,-14.145785204675404
6820.0,1.5138302518050772,11.794726605450643,-4.549715137885578,28.445178078509915,-21.997467194648582,-29.138292689597137
6840.0,-3.878327669720308,5.571911717628356,1.3045866402968227,-35.06403717836365,3.901102713507262,10.339331623982398
6860.0,6.084750105072461,17.079347386982175,3.8339550017676087,34.39140750354094,9.659168345747322,25.666141023439312
6880.0,-6.789786651726085,4.848657630901419,-3.7656228929181617,-30.149291468246386,-26.10903527927908,-7.733747846300916
6900.0,5.628862096255097,10.397121478809224,1.224507913206331,19.23294104181016,21.85775416720549,-26.643725276335452
6920.0,-2.514270330659745,8.690066162640218,-1.1546415284029719,-8.260447691188714,-12.546968329731175,2.755802732806378
6940.0,-1.4608815701442515,11.836332100763153,0.6882682221247972,-2.911144613815136,-10.678263578836326,32.600756532308175
6960.0,5.190421442647599,12.041363363182958,3.7305870239698184,15.686568562104577,22.24011774562353,2.0607195215886716
6980.0,-6.185210468839695,3.7005336263710573,-5.1869001741103435,-27.281370739411095,-20.900517726382652,-28.58933031475821
7000.0,5.5502282762890776,13.69320782997862,1.0357599466437342,31.9551948454626,10.365700445284665,-7.040535310450058
7020.0,-3.674346446057837,7.206620110221015,3.067199015534335,-33.005529570708035,7.162152293629198,28.36723155751111
7040.0,1.5129463582131493,15.144369204656087,-2.883725965295482,34.65903195528484,-18.27851768136266,11.039926832799313
7060.0,-0.3858278168196441,4.014544310833195,1.4295540471758008,-27.36117825772507,19.359699399139394,-28.101485267402232
7080.0,0.5259952447341598,10.721504328790612,-2.6163687898919603,14.667305138097557,-12.327693163620703,-13.90203843026714
7100.0,-1.254699585770682,11.448765482388717,0.5507796786291319,1.235383422629098,-5.477330552144369,22.85027304328203
7120.0,1.586285935613907,10.06650342135094,4.261078365707608,-10.693362609845998,20.899614593226218,15.65533259895968
7140.0,-0.34755073333398473,10.55022457117044,-5.29562533698986,21.47200703424253,-23.853951247320612,-18.174095647216152
7160.0,-2.346853722362039,3.7007790815390527,0.6429543624789296,-31.352191750838433,16.14441351036874,-18.68629593012581
7180.0,4.827401221969913,16.35950137878754,2.3170999799953385,31.450646270936012,5.570115615263576,18.123512726204154
7200.0,-6.717339887506713,6.912255786159011,-1.096695677592183,-30.478210219428355,-21.447869999423432,24.136106170669063
7220.0,6.962925374441787,12.771442753155124,2.7554200047423496,29.826358273386845,23.438231479604767,-13.86540446561521
7240.0,-4.39848397899593,4.448352260995957,-3.99271664632861,-19.98495468858781,-16.003979469030927,-24.071063163484048
7260.0,0.6883005580889676,12.212458880263371,0.5961516233573769,3.8675330118183355,-0.7020186358294127,8.133640551676038
7280.0,2.4293451440759934,12.434271220088947,4.5337370532339785,5.704606002805419,16.661538710275572,23.93241333278239
7300.0,-5.2367585419646545,6.752041683540866,-3.572303586095689,-17.786209344504645,-24.49988242366402,-4.224223662792356
7320.0,5.516884551375465,10.964573881749052,0.35566022920523355,25.383248185221483,19.603582169216935,-30.321066754574147
7340.0,-4.273725446067913,5.515202178931414,0.23729170162270175,-33.88884175524538,-1.8532833222535718,2.2829949828182725
7360.0,2.606398821220936,17.379519809449132,-0.40864848765913214,32.59210954858323,-13.833920418502027,33.35723258825861
7380.0,-0.978339482996859,4.994365516346373,3.530811188254458,-31.691487177534665,27.243168826846095,2.579733875565149
7400.0,0.9424362721171172,10.745134162991596,-4.837181509720054,28.045911906654197,-15.311335637818287,-31.667318469157703
7420.0,-1.4758452394531387,7.142390088899698,0.4968599141138375,-12.32742226763876,1.6110774989947036,-3.306916394801588
7440.0,2.0646232600134797,12.62753610989159,4.297194638977825,4.718575105127751,15.883260219806797,33.1063018257993
7460.0,-1.3377832718869431,12.222669351773032,-3.0579703148430384,9.564367489701539,-25.964700881820562,9.04599039675579
7480.0,-0.6080799937415684,4.629464898056334,1.1359990581387767,-20.668223927522515,20.069150176946206,-28.60736253109337
7500.0,3.30297396487822,13.216847986363259,-1.4387243537907284,32.40750795128912,-8.419473657566122,-10.658933236271963
7520.0,-6.100763394080676,7.396237348817539,0.2191250178170127,-34.12514503839707,-11.482232964079166,22.688435015896147
7540.0,7.442216582736639,16.05150047533986,4.66809022750904,33.100928823817526,22.248788088206645,16.080297263746175
7560.0,-6.588609402562007,3.7402734925004326,-4.436743474532458,-27.244617862675973,-20.29906554817251,-22.226714828691577
7580.0,4.189656180677328,10.680023243677104,-0.2653787325044647,20.235086894602766,8.169054167938082,-20.275043398910604
7600.0,0.34184355495284846,10.53530999104725,2.973280148165907,-8.145393782523664,10.970229174787397,24.058675537045733
7620.0,-3.3888880551700415,10.868829897113846,-1.4744710973625774,-4.9942007573147436,-22.319078743437846,26.554921559718895
7640.0,4.934026626448808,10.93667227021693,1.9562559850550496,16.87586352356593,23.091922698130304,-17.126382003337042
7660.0,-4.705891578063816,3.8854548802404967,-2.9774519751485813,-29.995512939486026,-9.442833192962489,-25.268430017751367
7680.0,3.1676655832345384,15.93272330440444,-0.4621778678761381,34.89750643687498,-11.967186247573087,14.441187322121504
7700.0,-1.6392163664260466,7.1484401077691695,4.868644475912948,-33.144186982908074,22.056659799606212,29.261239426174793
7720.0,1.1999937932279556,13.242028479390331,-3.5865299716872285,34.072288687585,-25.3109507219842,-7.460652797259441
7740.0,-1.619483817794248,3.805307532918389,-0.25816482635334775,-26.720014510475124,8.060452544593916,-30.465243526801633
7760.0,2.7192021482256576,12.296786089183795,1.2802384990746383,11.86359115747089,9.261226613882606,5.010683386379902
7780.0,-2.2970897519595086,12.017443886664308,-0.9855759212286246,-1.6800991332912643,-18.02659448131453,28.326833560172094
7800.0,1.3413062480894395,7.795763659178309,3.5131829959915875,-11.007365523910927,25.13139671496326,3.172486660645955
7820.0,1.3937290334133905,10.933821595952878,-3.68121367795468,24.236762409190046,-13.184614464660271,-24.496016241051322
7840.0,-4.390926900533057,4.893965189020204,-0.6271442406688887,-32.947593967880195,-6.295229613468197,-2.528034801987021
7860.0,6.648846444020022,17.18499674297924,4.864031397732561,36.31965653532846,21.68641400018972,29.194239772611652
7880.0,-7.64619133909369,5.858846569932626,-3.505826599108981,-37.01127701439436,-24.686062199828342,8.383569177802237
7900.0,5.7248840441982285,11.38054834431788,0.3720516706515864,28.045843108785856,16.053625735056958,-27.231459379168914
7920.0,-2.520957184153711,6.358757845529034,-0.5082098346181578,-17.75512643093463,6.147285487844419,-10.622912948571717
7940.0,-1.335837716210987,12.992932706422003,-0.5548042590524027,5.890734165098388,-17.553518974054313,25.007524732477254
7960.0,3.600135640348897,11.719548689375918,4.450476738003181,2.7752206880314647,28.87625757969534,15.208870530433034
7980.0,-4.31103698831315,5.278672215309924,-4.22266372971172,-18.05663113442275,-19.393709134622775,-20.95900444105399
8000.0,3.5943449960580818,12.413313870113655,-1.2121722748393517,27.96384128780559,-3.4248262830547183,-18.015537844054926
8020.0,-2.316274738672956,6.876240580791001,4.298574020895703,-30.610909186637567,19.998877395495633,19.113517412095742
8040.0,1.3568019192299456,16.27042098406503,-1.7736764884550713,32.83817775795475,-25.804982788177814,19.112763256225595
8060.0,-1.5942344392697352,3.352329694747729,1.3240452726827967,-29.22922799394628,19.825295455469863,-18.44403623099581
8080.0,2.686757585314192,11.033661972478528,-1.9701129287460222,26.266102017792598,-2.6779950975959297,-23.148909584839313
8100.0,-3.4143036756980574,9.468424573499806,-1.3425543001045313,-13.8662403036324,-14.254956195568667,13.273050904669947
8120.0,2.7045943217723956,12.169066672827336,5.282625930906079,0.4961521301112169,20.590801246045185,28.521597638463344
8140.0,-0.7943499970570015,11.003627934990522,-3.6116785264340097,13.79037150229489,-24.42485138799326,-8.921497346537931
8160.0,-2.649363749671062,4.1245877809229246,-1.049702682153778,-25.185857355004504,8.299347411905517,-32.7144892315985
8180.0,5.721198826730119,14.896552322875216,2.3745803988513474,34.84149033673871,14.525324014231414,5.994587598986991
8200.0,-7.321344538508495,6.987756535896911,-1.349755152987169,-34.38602649486639,-22.455617125835676,34.12908187726099
8220.0,6.895873035677487,14.527394175013143,3.1482521621110813,33.076256500678326,20.468434622648115,-3.4955676269465306
8240.0,-4.294085586443859,3.58550333178461,-3.061254124151268,-30.565129119026466,-12.612875290828919,-30.241221595002944
8260.0,1.1663731239586748,12.412010222760294,-1.7042379575612938,19.998490389020454,-9.52370602991156,0.17004455285620712
8280.0,2.4041464515204454,11.72967250420511,5.157452749167643,-7.851858131134375,20.776554842474365,29.153167878371004
8300.0,-3.711414673899602,9.288540165739594,-2.8836225245767437,-6.579778421940023,-24.038041759126962,8.356545641118526
8320.0,3.630627277614846,10.107008533144237,-0.6106126534855537,21.50442072590361,9.876347580502205,-32.35187450989003
8340.0,-2.8756370800286843,4.692131920979037,0.9431574113148655,-27.066435685164887,8.892357275544324,-11.276009644534302
8360.0,1.6183392396264928,17.014858856188074,-1.3674361303747826,36.66878551620633,-21.89654308853739,26.031568712330994
8380.0,-1.8352827218090515,5.824014851767173,4.160995369661886,-37.733085271304766,24.883339940803598,14.423136894905099
8400.0,2.3993717241138195,11.93458318401364,-3.129782326684862,30.722254956910625,-15.092020768812358,-27.48589381249446
8420.0,-3.6238324750554853,4.905859987836128,-2.2319367473066545,-21.097986976308505,-8.414713491151815,-16.312583799048422
8440.0,4.085069929419674,13.045612184123785,4.529684167034473,10.732464352134432,22.08075547839082,17.494047391793387
8460.0,-2.6814930743978964,12.00748908048157,-1.9647539108830376,5.249788540218785,-25.199460808562307,20.991273046820265
8480.0,-0.07085697403406825,5.98978077816548,0.2545301123783067,-16.10304799375961,15.610050892255401,-20.2260322957755
8500.0,3.9043776201563007,11.317104287890157,-0.8457856818168895,21.709371217700095,2.1644732174575467,-24.855838436779205
8520.0,-6.351466819155992,6.753647369796286,-1.6778446479129114,-34.55555389416271,-18.597100266366745,14.87916768243802
8540.0,7.522098793462404,17.15906365449035,5.116735938068429,34.30063872774342,24.547285578693447,25.83311180905044
8560.0,-6.489203084327949,4.097621630665408,-2.958750550536587,-31.865112492109706,-13.02454946190034,-13.8366262643659
8580.0,3.2261550311406553,11.549484946222067,-2.385498165204241,27.13712067334369,-1.371791233133541,-28.738039227786942
8600.0,-0.25720945125495864,8.171096834290921,3.271940360103862,-18.22616882987842,19.236552931138746,9.582451806664196
8620.0,-2.3738167013218097,12.6528456333343,-1.4748001917996545,2.9043201744429767,-27.460802191271092,28.287974300747535
8640.0,3.522269450873251,10.624419752657305,2.2312096144140416,8.018279926146828,19.5911596944818,-4.201601472548201
8660.0,-2.5085928023753574,4.762286431711179,-1.9815083302034016,-23.072092620748585,-2.8773934335897886,-30.653593251725013
8680.0,1.424127690840845,13.56388231175283,-2.478535225443322,27.34532011451644,-14.018193418923772,2.1428459893772707
8700.0,-1.1654800873640787,7.455461231884734,5.040624859532061,-39.325972526783644,24.975482396124058,30.44010410999607
8720.0,1.9856270439357668,14.901077341461587,-2.269999363890698,36.004004157108724,-20.870080609129488,5.38562577398772
8740.0,-3.316908894822981,2.8078956309285954,-1.6480793552327864,-28.817089105484673,3.7615518849854483,-27.270876627213838
8760.0,4.523457514380521,12.288028815064187,1.459293381575665,22.15802418860397,20.346705802523278,-10.906498156518492
8780.0,-4.145675669934725,10.69817778174997,-1.5108991406828078,-9.235999635835258,-25.077045136417905,29.98751047734337
8800.0,2.1424664136924156,10.34808916698949,3.7048126447109975,-1.585230352380232,19.761473095235278,8.459093502669651
8820.0,1.4898128789294673,9.926007346927506,-2.7394004828038145,12.106891320954878,-5.8657538557159805,-22.17415116333701
8840.0,-4.732018707890301,4.5231657449857945,-3.168152565447863,-28.941164802421667,-15.240041987702233,-17.2238717739285
8860.0,7.113092738282893,16.331845816055377,4.9246670531719285,32.59789447908949,26.82777670054346,25.340017287358485
8880.0,-7.278750523586969,6.2930721994797985,-1.700134282143847,-35.49293749668708,-22.548359670778083,20.923018791274927
8900.0,4.943127919580136,12.537267920022023,-0.438498853373983,26.24146394246986,10.414196033235914,-19.055773708495384
8920.0,-2.1232665053576723,4.2395647272057815,0.013514824282874108,-21.633966717978517,8.801955757769512,-23.70284893151463
8940.0,-0.874870493181316,13.578541628874246,-1.6901367065279254,14.989629146493991,-24.052107848182587,14.93593738969422
8960.0,2.3345674249606514,11.37658647602296,4.651655106517879,-1.355285522064346,23.67912754124318,27.51758426093766
8980.0,-2.484009048210946,7.277645108544548,-2.6812222920477833,-9.818470997095286,-8.827069668387422,-10.03743291555865
9000.0,1.5775768559963357,10.483973088413943,-3.385322309303606,18.530031084584976,-11.257769564214986,-26.176433815964838
9020.0,-1.2049460839934916,6.358529054403432,3.604530568789704,-30.016635666476837,24.09145242965043,7.451203541291957
9040.0,1.8229911262515075,17.36379039055684,-1.3007371410952444,36.18228234769647,-23.45241778349505,27.764177963888997
9060.0,-3.2506545872998895,4.534342451102891,1.3597223873366033,-31.82158566856637,12.749444741717056,-6.425878350879835
9080.0,4.649014591580706,11.871150004555748,-0.9225609736804288,28.409067847209062,4.66127150534568,-29.860644734703563
9100.0,-5.3377385864841225,6.906027673264248,-2.654622440638594,-23.084533816557048,-21.879160691949224,2.284498885660406
9120.0,4.091632905174401,13.492672076188436,5.459895704110547,10.617367847518189,22.559701029348467,30.080563700661248
9140.0,-1.0304644026747694,10.629097410836593,-1.543109354414419,6.038449170802304,-10.555471865149336,2.729824622261652
9160.0,-2.86021456206461,5.16962919249909,-2.5754376269651584,-18.536165366885488,-4.288365372330409,-30.26031261348101
9180.0,5.871503646330412,13.016476026224103,2.278163825178331,25.387109518421198,22.62757816910962,-3.933416825103663
9200.0,-6.988594547992886,7.580731786063075,-1.7254507841035012,-31.201320276060546,-21.78093635668656,24.672903850635763
9220.0,6.624532754301554,15.618085721268184,3.299355113845709,36.425352204226584,13.667784145844868,7.495087256502732
9240.0,-3.9908671242639184,3.524137184933995,-1.8713210390248578,-32.61688264057585,3.1660040555735054,-28.18010663958738
9260.0,0.7496549634558609,12.202254966811717,-3.693029992158936,25.10352367958307,-18.174585954114573,-12.936354663869201
9280.0,1.2870964432458685,10.134377798576605,5.093232385433035,-11.418075169931015,24.507373771797933,21.30245233602554
9300.0,-1.7483486612977872,11.89347520502246,-1.4169103957349645,3.2819157670118217,-17.704215790126298,17.217140256277993
9320.0,1.706163257232641,9.825926179269466,-1.6768356761450824,11.312830914089904,-0.8555812517936344,-21.674164314080546
9340.0,-0.8408531137072994,4.913687494596921,0.24821966981845,-20.676088609111584,16.518662628857605,-23.80721572937711
9360.0,0.45423122861791954,15.931553485791605,-2.4211303079479367,31.065175326705898,-25.475098216237164,17.461603648363997
9380.0,-2.49345388329898,6.813664182990101,4.238918354389439,-34.62190501070006,18.800870858485276,24.775616214364614
9400.0,4.112900717118295,13.505975729393079,-1.4932059603928176,33.76990401171384,-3.777443882184671,-15.088876268175314
9420.0,-5.3868912962738325,3.541935215029043,-3.657442034108055,-27.894480255335267,-15.540236319312676,-26.477212029942905
9440.0,5.2819008261163365,13.511359632656303,3.925224088469934,18.48703092531067,24.82391481264959,12.052567778620707
9460.0,-3.6059978134368516,11.053058255912617,-1.2623641375734738,-7.4551442392332845,-22.615765844643953,31.809091757310412
9480.0,-0.07590521368297892,8.634494567784895,0.3512560056574002,-6.147677088905617,4.82266501866286,-8.34209063000521
9500.0,3.859988828005788,10.132975161254215,0.10122834073716191,15.283565099420123,16.02789604731256,-31.861872752238828
9520.0,-6.35150476027301,6.0190710360147985,-2.9561538431191092,-26.312638711770635,-25.06068982630888,1.2775575021599646
9540.0,7.055484070490156,16.903117116099736,5.04878645267339,35.20657496102888,24.990507360967072,29.601668893563403
9560.0,-5.346143697802389,4.773803444688319,-0.5902214484936544,-31.31809808450435,-8.96107209766077,-1.9754310604039398
9580.0,3.1142630534349522,11.950115065348163,-3.274598025942647,30.34642034021756,-12.298401696886183,-30.822901972828994
9600.0,-0.22431078688736128,6.198828384051755,2.7306860316483825,-24.46804662591649,24.070760776178243,-3.4306668529156608
9620.0,-1.1073541040932522,14.64477369156464,-1.2129430216000794,12.945135372976532,-21.841466558684623,28.587143429152196
9640.0,1.1598212270062325,10.577993569725573,1.6618995976039148,1.2063756663238745,8.722500279152596,11.813252241873982
9660.0,-0.3144409878150617,5.8728297518183075,-0.675370749959397,-11.35601326451312,8.103009211180403,-27.751434567511957
9680.0,0.25637107115191626,12.150816313608079,-4.093992882722166,21.507359774927906,-22.38922805758167,-12.929971637463158
9700.0,-0.981298517081476,7.9178405438698825,4.709462822597767,-29.58006776288857,19.0502917462809,23.146631709365717
9720.0,3.0994495201301246,16.024290134743893,-0.15320687905863517,35.25478535379992,-11.063485862736334,20.61140074503012
9740.0,-5.469349356494635,3.069922501465168,-2.522958662196058,-33.56470041726282,-8.04663593548184,-23.12648988213402
9760.0,6.137879790933423,12.314439604547193,1.6960579104313636,31.088649689037634,24.816094475830244,-21.785970400912678
9780.0,-5.0813521085939515,8.92194422805992,-1.636962237130519,-17.443766239825855,-23.52441204571365,16.263139478648505
9800.0,2.5708172651072827,12.7748284708375,3.6174240504459654,4.638594974342697,12.800425630750428,21.489812089840054
9820.0,1.4821992763095007,9.380092038555436,-0.37234992917666343,6.197123266252297,2.5090885442541566,-15.439911860362866
9840.0,-4.655116766967699,5.1321993145818805,-4.714611924157508,-18.137600980799753,-20.737338985787105,-24.34313126512968
9860.0,6.758050198783285,15.127199538091572,4.508557328816033,30.14944971977564,25.2815103957302,13.247728861010838
9880.0,-6.412209419950052,7.585951887131406,-0.45311048842264545,-34.23482916904357,-15.428935419468589,29.264607946311642
9900.0,4.218037275061237,14.201729281733472,-1.1240849247261853,35.0538771845086,-1.703913727947378,-4.731963124273157
9920.0,-2.161500120047646,2.855913548402693,0.7449883042445665,-33.62657096764192,19.09608403032371,-33.7829005592251
9940.0,0.048435752487271486,13.532179667894908,-3.4092968774572103,21.470999482903252,-23.835439237892988,3.8315989094490743
9960.0,0.34680990404412104,10.576092675750608,4.501624941834633,-15.30133929480725,15.189429866150743,34.38521947937196
9980.0,0.02192886339525191,9.815646760490605,-0.017762242790897036,-1.8847374857305237,2.939151182343975,3.8801582839580524
