timestamp,ax,ay,az,gx,gy,gz
0.0,0.030307516865889162,9.83624342678374,-0.02686245956731589,0.8188057529889452,0.20876811281882374,3.790517214651804
20.0,-0.0511976483769182,9.194053312542582,-4.196492024453571,11.266978461122589,-19.735088852123045,-31.243714559862532
40.0,-0.33923898921668255,6.097348030583997,3.2356222262859076,-23.76612765382338,24.554479930225376,-3.589787843777043
60.0,1.4496504798263496,16.62618041015198,-0.4737436437936904,29.651180882351454,-17.984454182284413,26.653034718592366
80.0,-4.579888816285418,5.464009074270444,0.9334163035047849,-34.57374695619835,-2.4039790795212856,9.05573533932415
100.0,5.909400904031378,12.253581406231282,0.47785963260879405,28.53474308577194,12.393678990190503,-28.693362241167687
120.0,-6.723990679399603,5.0555700444854725,-4.759052471487048,-30.06854727498288,-22.994743091985505,-14.045279970532278
140.0,4.77643812365643,14.456205844035807,4.653941964948289,19.00151916021941,18.98453217809303,27.04395598648915
160.0,-1.5213292429849266,10.557929891008623,0.2178730619195694,-3.84933113316755,-4.018778425606426,14.031751265911856
180.0,-2.297978160969279,6.738623680995645,-3.39761005411449,-3.9674560829295884,-14.597846014721306,-28.46132291337728
200.0,5.578066188898924,10.584973533717042,1.8225845117975596,18.124226465107487,28.127105538784477,-24.998787349146376
220.0,-5.8215438462845315,7.53806705397554,-1.678577326013706,-28.15894948567008,-23.3952279305169,19.15784675050381
240.0,5.131396785506558,16.40134891978265,2.165572303465148,36.389472992591244,7.5242280001881525,25.284763770711386
260.0,-3.232693548307647,3.3702831921682614,0.5619059417927679,-40.77849324333942,14.46368159425025,-15.128993820676001
280.0,1.2245339121668917,12.055758886595818,-4.7633469777029465,30.191728542832244,-25.469786958909477,-25.330773593389697
300.0,-0.16284691945261517,7.707703335291784,4.341549521065237,-20.525247913424643,20.412200095042127,11.515891235088267
320.0,0.38194987675655284,13.839300070271625,0.5399512482874744,10.29941255973742,-8.874217348174946,27.49864629638745
340.0,-0.6197616000828702,9.036358397280361,-1.9994704502982028,-2.9273847589337665,-7.70764974103904,-11.3770488927857
360.0,0.8760600843018507,5.64910656611132,0.8382743202246525,-13.479869508532254,23.973194636829877,-31.604522142173824
380.0,0.1235612864946189,13.987017399842632,-2.8344216973008147,24.303503160406848,-22.44422884373005,6.1345145228036495
400.0,-2.8076750314778542,7.6524300920273625,3.4939191168715933,-28.35734980770924,10.182021145136819,30.933302306808265
420.0,5.560785117322382,14.578690439982623,1.0616580381300063,34.04058730702203,6.340698182375402,-1.6868161370627135
440.0,-6.59640615699844,2.600267875814096,-5.315323106147394,-33.84133988064346,-23.51877464034567,-31.603100180231017
460.0,6.047920682879672,13.38608142681195,3.293538058416495,22.714666694467603,25.90050012111124,-0.3379122230137903
480.0,-3.867257952338718,10.11088280338319,0.26525344313935184,-14.669500272379995,-16.358139550239066,32.768573555701515
500.0,-0.0159661904271474,11.10089511961316,-0.2491318106302301,4.68416611726598,-8.054599634472655,6.880081656816736
520.0,3.877417970441996,8.349398072163678,0.8739295962497755,9.008516971260883,22.937369717701124,-27.80412085675888
540.0,-5.753304221033321,5.922600254534113,-4.332539115823789,-20.03568251452785,-24.250707547875184,-8.980632596798575
560.0,5.723251813565934,16.161398276529624,3.9249347899965223,26.27512870589277,14.316865699569613,29.36265198497662
580.0,-3.8099709517073803,6.147278963589995,1.184242721813576,-33.318878291441855,3.2632216281105153,14.284561284697112
600.0,2.1108254365080277,12.553738078547298,-4.285152873650569,36.4350280836539,-15.55212513961103,-26.417748335521637
620.0,-0.7054099083215699,3.80918426351077,2.3925648272352635,-31.909981818264704,22.594167756372816,-20.851541714703927
640.0,1.040164847461765,14.910009982131442,-1.1230506373209548,21.896420741876547,-15.410885731664118,22.43834159401407
660.0,-1.5478089378370563,10.273534108770919,1.0924337211870316,-8.281455932324569,-4.147480894778185,21.449047495699485
680.0,2.4412244089011588,7.655630343078767,1.3802514560821884,-1.556535015523945,17.049285842669608,-19.74472908661559
700.0,-1.180977917099659,10.304480138837356,-5.331127021712167,14.360384246739546,-24.966337258732356,-27.07032780720946
720.0,-0.7599615253149203,7.687290231916975,4.022464208206683,-26.28817263232793,16.185049457899865,13.18549362590102
740.0,3.8576331435321185,16.951506899644116,1.5008281502184013,33.760211233095006,-2.3703649861934375,24.75949407758352
760.0,-6.670724867034073,3.9845480036000436,-3.146395564210947,-35.57774867167926,-16.64479444892406,-11.144060780461492
780.0,6.515967308445088,12.098405732944967,1.4639477538304495,33.01053396056001,20.370186399755223,-26.316903780864358
800.0,-6.0540079874655275,6.836890935692639,-2.700483285243089,-26.55318517197163,-22.1100656059363,6.330516381662397
820.0,2.705683044410264,14.66703815318142,2.6102802210506844,15.725740173372794,5.251382072515589,29.653521904552584
840.0,0.999062181685519,8.773418975415595,1.1771242224571439,-4.575142352449794,16.728482188606833,-1.7334090839152672
860.0,-3.859682753511586,5.939623491224848,-4.931273431756374,-11.074235003197215,-21.70452581407619,-31.471472529963744
880.0,5.353366339452948,12.779193620777372,3.01450105380662,19.567674308069762,19.55792511665832,-2.1385595577368464
900.0,-4.439847909456782,8.066936786791988,0.7991214498508616,-30.116205843675697,-2.599256096567127,30.44463667195415
920.0,2.723382533961468,15.182519968887474,-1.0771301931072026,37.78202388770657,-16.961869881773755,6.178917329825788
940.0,-1.2869870902213387,2.545793657951673,1.6820317486238912,-33.12755333989039,24.09528714275659,-26.38752950050297
960.0,1.338973384590441,13.08383839303386,-3.4896751093008067,29.977020896656633,-20.243299936741508,-9.335484557651217
980.0,-1.6977387959106545,9.02928375169279,3.046097726035513,-20.297114375526505,7.90395584030852,23.934579523470603
1000.0,2.24942938116471,12.185434905550204,2.0926036406353417,13.386336155706815,11.14566719933743,16.83620065109377
1020.0,-2.280705352957597,8.276704310371452,-5.0791291925766116,2.8842159953755924,-22.228425724224245,-28.032273420884035
1040.0,1.098952827744749,6.404174571188396,2.2570056557618745,-15.15235464231018,23.121725042911994,-17.572029502646597
1060.0,1.7164153606032766,15.214574236349478,0.09939093246389974,24.96595246603863,-16.63568067601743,21.924692900704223
1080.0,-5.144140912319848,6.851260329620201,0.40388052933127105,-34.540850004288494,-7.9502407043818515,17.579423811963288
1100.0,7.260940534149527,12.807573612698675,1.5016406609667243,35.99347135705912,20.665456159627603,-18.744769144959022
1120.0,-7.033357530018368,2.8288274963513333,-4.976376687168273,-29.879504653633884,-23.809453966850413,-25.252546912897806
1140.0,4.977189911740682,14.887827214383767,2.94338844320609,25.340500711199407,11.135603454561696,15.936694213695196
1160.0,-1.3196919411470116,9.699747529685412,2.4153623830672477,-15.397335164499067,5.2545090055516726,26.52104819434223
1180.0,-2.111114352010305,8.963902311175687,-4.067429523533081,3.4675479474494013,-18.69584139560829,-11.996336379686571
1200.0,4.3636550573481525,8.807420134742959,1.6649360770184654,10.789023663559805,23.964011657774,-30.83115217726387
1220.0,-4.0692027441491545,7.644606388059513,-1.6004952524327551,-19.71177150765194,-15.057027493045183,8.523433609104691
1240.0,3.6045430974571686,16.465756744578766,1.575917040560983,31.511361673929912,-2.352302839436685,30.841601345013547
1260.0,-2.2689574832653547,4.419086006875037,2.562224845763545,-34.45879755881812,21.872838432484826,-2.833336390988144
1280.0,1.455655602649535,12.039552509779583,-5.585773265081288,32.899101702381905,-30.609577533191175,-28.18603053349132
1300.0,-1.6474790785425888,5.579204629548175,2.5111818561986294,-26.7610482799152,19.295697539903546,-3.0666464258924684
1320.0,2.9387830749089465,15.314960091953456,1.7307904112305392,22.11989996493248,-0.08124334123375088,32.74279422161098
1340.0,-3.150959323604035,9.19247522199646,-2.152900720272387,-11.004254337673574,-16.027231773866923,5.778086596683707
1360.0,2.715146092760447,6.942922214542807,1.715410601038841,-5.349295035747393,24.501262810672138,-32.156808760055085
1380.0,0.5507972687360325,11.381742946011999,-3.1608439769067838,19.77824475256018,-20.014343393099352,-7.998028767765302
1400.0,-2.92001170411719,8.529399411485088,2.0025206529192046,-29.37886351845502,5.742884417323043,32.95114590458528
1420.0,6.340528897100679,14.954850063031895,2.8577692647448614,33.33908819359641,14.308412414050682,15.42734785450893
1440.0,-7.247721349814415,2.3972009442930426,-5.170737814286608,-37.93366897243509,-24.397399348155446,-27.11009728545073
1460.0,6.288802478220114,13.175295781369883,1.6215341053732835,28.934450310805143,22.69300444554797,-13.127699348076336
1480.0,-3.7877553536069466,8.229371113770505,1.2677832222995884,-25.226890364528217,-3.8899824767696094,22.924547503822453
1500.0,-0.038113253237398614,13.806323802508555,-0.8304004693959992,15.705697764676593,-15.506342753250584,21.03463244774087
1520.0,2.881751701924884,7.802477586691073,1.868408632062394,-0.4030576658530891,25.50512746923666,-19.964590233164717
1540.0,-4.277620040014249,5.9799894144624295,-4.340457666737645,-9.99043002778339,-23.861675402641993,-20.94457342571947
1560.0,3.5064470214538708,14.839196828225246,2.0769080003359224,20.105499299193255,8.634621237398406,17.993163524023743
1580.0,-2.794886446190149,7.624175146337117,3.1430584122235197,-31.38666997625366,13.578646383773641,23.27969907667785
1600.0,1.586959978353522,13.690484469878463,-4.555974469421366,36.238324099305046,-20.658872184045364,-12.590180558617508
1620.0,-2.133895879934884,2.6477067611111784,1.184873390355865,-33.43671764074779,23.037885229302987,-27.11595805759694
1640.0,2.3652244073593067,14.252367478909898,-0.5774488181928118,25.249317185696068,-11.409722572315887,12.037354272770722
1660.0,-3.460602239184388,9.254271155849104,0.903637265864661,-20.24477242092894,-9.32170013291411,28.60410214685664
1680.0,3.611695072729274,10.288149169915721,2.832015595272244,7.231875839908011,23.929295926075675,-6.781326505952751
1700.0,-2.1536672490830044,8.019423630987767,-5.380620589177711,6.25893469351669,-20.12256398754348,-29.121955903522345
1720.0,-0.9112775450143471,7.198821521276279,1.6703719879933228,-17.758906147639838,10.41332923378974,0.28618803160841666
1740.0,4.444993557405344,16.267329314688215,2.913348564011303,27.636828975833485,8.063717136320781,28.882822026094757
1760.0,-6.803458564366705,5.540235540653157,-2.6977344224310125,-31.915513485111973,-24.404736518788336,1.4052337206931687
1780.0,7.412803789072257,12.231775190959274,1.713318900973174,34.78131180012141,24.998542299949452,-31.60237580450183
1800.0,-5.733609167415843,4.8864492180482975,-2.2837447116660363,-30.28261888236157,-14.929819205101792,-5.192026332847295
1820.0,2.703531800860505,15.596495848245135,1.137727884618593,21.300697098928158,-4.868382866497234,29.53714309224831
1840.0,0.642636706583648,8.895448396118065,3.2051564322452633,-13.406903970931882,23.33205839591607,14.22100999899771
1860.0,-2.479082670868613,7.622052168625251,-5.301116765131913,-1.1062565118160779,-23.069928234214164,-28.898443570329476
1880.0,3.5214281085572954,9.89710529891539,1.1134251033896472,14.001219556219588,16.400874641236594,-15.346194612617722
1900.0,-2.6954496261059333,8.552652391788447,2.1850048048560144,-18.40445220742795,0.8035129277271413,23.354064947565046
1920.0,1.8273879835640516,16.101444221643373,-1.1744881662741187,31.8209913188259,-16.740131803210822,15.643288518432067
1940.0,-1.4766654587251735,3.2443737854378547,2.046937477452956,-32.268413625347044,28.142836141199954,-23.509600978358073
1960.0,2.584210627400458,13.08429016503747,-4.009682085175551,31.59275504816197,-15.441573438423834,-21.974671617820334
1980.0,-3.702884278447129,7.425214845583612,1.1573816643406756,-26.539081553153274,-1.341074969472835,22.384725505173293
2000.0,4.375874220120782,14.209973535396005,4.115335701013238,20.068775654941447,19.149576650950536,20.376803712318235
2020.0,-3.73069956131098,7.553981703909684,-4.555323516381628,-4.692159560967187,-26.99640089139421,-17.5579599951503
2040.0,1.6324748275568008,6.502551401382673,0.873628490618826,-5.2982271118063125,22.401035890776914,-25.9501554544656
2060.0,2.2495460635066875,13.460305917472116,0.5924669649786393,19.98674656058177,-3.060091537245909,9.373363373272545
2080.0,-5.506224769245787,8.184565170905131,-0.2829884490906927,-27.918041916391456,-15.33381676439006,27.93401135338637
2100.0,7.736066728777587,13.778155377828346,2.805724646897363,34.05934515247246,24.56455992691533,-9.52175779468234
2120.0,-7.15238234189847,2.29182249724825,-4.794605405971813,-37.17700599433293,-19.7874275458247,-31.573365030212443
2140.0,4.622199874205679,14.028834427566727,0.8813374126677502,29.816860546118278,1.257196097740879,2.579002964290872
2160.0,-1.5199428244592623,9.382558591223185,3.89290123581298,-23.375561150616207,15.615123186289066,27.392596647753898
2180.0,-1.3888905483372782,11.579855004104033,-3.202159699235106,11.948015699352135,-20.396218679520935,2.7788962307106333
2200.0,2.5810091933685504,7.4551089577749865,0.8574121955532473,-0.24356359577391207,17.80686825354164,-29.89032557142249
2220.0,-2.0321643189497163,7.260801073363043,-1.2860399839968855,-10.055782530319053,-5.880038245974941,-1.417571384500265
2240.0,1.7577622617601003,16.007816195285827,0.31287532243866784,26.032067333263623,-10.357747203561942,28.581021649415238
2260.0,-1.3568824198504705,6.217911025016347,3.910148000503136,-30.882417705165377,23.43618871435661,7.775424996686551
2280.0,1.7758267416679934,12.100244890629218,-5.210871830572587,36.88451951593475,-24.1264105656684,-25.313458680023057
2300.0,-3.0903191650117314,3.9638006501248735,0.35577397018303974,-32.910102346644166,8.89036186168326,-15.286760437125032
2320.0,4.690626602999798,15.58309319891477,3.1005819118679976,28.83783357014859,11.186030739151587,25.59627169102822
2340.0,-5.09963632229349,8.733886387315101,-2.3166273907384234,-17.39783419497809,-22.483551507666988,18.53517829990164
2360.0,3.6327354062578374,8.376394162270431,1.757257352262357,4.803037150470239,23.281002914364073,-24.373268630021695
2380.0,-0.23445598514684413,9.185824216236782,-3.060564905104232,10.515785949191933,-11.973273456912263,-24.34355664589886
2400.0,-3.296883171477147,8.66334917549987,0.2994607790793132,-18.931705267505887,-4.168220944705253,20.840945921822726
2420.0,6.106743409709646,15.917655758273966,4.9247864722678045,27.39376672462633,25.628869378528165,25.62326382377636
2440.0,-7.04000278699254,3.8621215115798195,-4.403970805253392,-29.875214008039688,-27.350216683206135,-16.121001631290284
2460.0,6.330050001759645,12.556548213994665,0.3422068268545467,33.130497393079025,11.744881903007915,-27.396411643503047
2480.0,-3.6391071707218323,6.275450455051028,1.7073591870400944,-31.90989687726293,6.094773929917391,13.711962348856735
2500.0,0.055401063609445966,15.430987198502,-1.0518992216054803,22.786818683978016,-20.33618611715734,25.794038299341697
2520.0,1.2151017378964815,7.692746591434861,2.9958053343139115,-11.418009501735341,24.046109001683444,-10.957209404917878
2540.0,-1.8615542787650132,7.378354579491798,-4.261547117787911,-3.0239841117705497,-15.556535951611195,-26.000240754806416
2560.0,1.7742990690561142,12.201928439830482,0.1227817855672956,13.943341336838385,-5.942075833881828,3.2338193381995426
2580.0,-1.1009676770470649,8.671708145190062,4.678940574684925,-26.609863781762456,15.455593886846865,29.58495438419547
2600.0,1.515149508508341,14.09241876949346,-3.493559410042615,34.29883371655828,-24.24216605975799,-0.7445180660913442
2620.0,-2.7010417250256094,2.3234324446385624,-0.06712158530896495,-32.99353078620319,17.92734547422763,-32.992315854653306
2640.0,4.553783071421795,14.379201323772936,-0.15318276147113227,34.57581791906668,-1.6337304095173664,-2.9499479201419874
2660.0,-5.545950641809261,8.786498530804792,-0.2481061871352519,-25.378759308460975,-16.460493385155775,28.746026891027718
2680.0,5.33884550146813,12.658081385489155,4.197311924247786,19.681207964960212,26.002778845466555,7.498500262369708
2700.0,-2.7363654635260004,7.193678070292333,-4.346819720099662,-0.9461617365571797,-15.04916972144562,-27.671362231819874
2720.0,-0.8323933561808201,7.426549462803847,-0.8825462704365064,-7.748329326936579,-1.162083654799582,-13.770087209769622
2740.0,4.1267329454298425,15.049286985733977,3.9108719948728403,19.671899020825744,15.274654530918408,25.28049163495069
2760.0,-6.615378335196734,6.954172788964845,-2.0325953726726613,-29.979461399596005,-25.729601274549317,19.93927672864579
2780.0,6.923291905056322,12.709378837356914,1.2275441725735268,33.6281300375539,17.172113404240815,-23.868888563096437
2800.0,-5.202452630049012,3.193955484939765,-2.019704184490252,-36.381296055646885,-4.091812814568294,-20.977038141697054
2820.0,2.237314794897535,15.882453405298147,-0.41684203749142457,30.94431966348742,-13.072562611751104,18.94344300112997
2840.0,0.027586426752205462,8.68147363522676,4.860676107912913,-20.264855667268126,26.544632447803515,24.200723939273978
2860.0,-1.3672515859417742,9.39553901829619,-4.492127822668983,12.199464487736378,-18.654958016584295,-18.94336879382644
2880.0,1.680834428417331,7.907187619855985,-0.8081593732778366,2.088734420144429,1.9884855448197767,-25.851920470036692
2900.0,-0.5759014523201862,8.9518409571493,2.908737546257139,-16.84434387338469,14.048999875653077,13.406306647489547
2920.0,0.2950704067863302,15.83076620051049,-1.496580915647275,25.54192466172358,-20.999153685417348,27.10245557780169
2940.0,-1.7316103304976187,4.2413533098206075,2.4244103456405917,-32.06556990686943,22.42050211103514,-7.618273125460609
2960.0,3.381742777522458,12.423005595753143,-3.1242325849791555,34.90296439097927,-7.807730291761427,-24.326005543795187
2980.0,-5.35119317051019,5.635386240209359,-0.9928572557251836,-31.82131900819755,-11.137800635501918,9.64754992472593
3000.0,5.9522705553360415,15.659156174032454,5.390207744775559,27.054653957228116,23.630268153900495,28.426545933521425
3020.0,-4.855896783028755,7.535668536380911,-3.1605542436892895,-13.90793318224939,-24.554507447037444,-1.8880602881023238
3040.0,2.0369944504281836,7.5312878500469225,-0.5333179634084825,4.320050500257973,9.01274947259073,-28.08279371227295
3060.0,2.3236184927647625,11.392899532742208,0.9247432023668611,9.757269939106928,6.858014953857896,-1.879315531914035
3080.0,-5.353912203903974,9.061991993486773,-1.0056995008849121,-18.296369076369444,-23.255447959691654,29.822853118847352
3100.0,7.087382302262297,14.728139739292638,3.79105311499609,26.794944116605688,24.585935920469552,6.435258913898417
3120.0,-5.961126761817076,2.673789419509741,-3.6226362444386155,-35.732786876119285,-12.505448905699739,-29.665321844015835
3140.0,3.8989162717603487,13.783504919841576,-1.7293108931723415,36.845299394074715,-0.05298409510734192,-12.971837747262203
3160.0,-1.5683920389008674,7.762946664629757,4.660027991184576,-32.86666464524732,24.676071276212024,27.967700865940532
3180.0,-0.3178921747081609,14.074809702814102,-2.162514470255895,21.799504165574433,-21.947626720174867,16.370719699979116
3200.0,0.43014343355829676,6.761025200312281,0.11381366800578524,-8.574229178796838,18.86092061747436,-23.078311278356953
3220.0,0.2993112256777792,7.650231625043757,-0.8399857662803659,-3.829513032700391,5.098347419148201,-17.915068051801786
3240.0,-0.047579565411069225,13.694374955455539,-1.2333570062371424,15.262264165840177,-21.112206885333656,24.24201630555306
3260.0,-0.49347133181947656,7.658512290347136,4.731887865762629,-23.462771887868296,24.09863002481093,19.53123308665085
3280.0,2.3508503788646222,12.959873869190663,-3.6683613620409594,32.07773369257834,-17.718945414186607,-18.00866979162384
3300.0,-4.749478402958491,3.0720557540924367,-1.8481765745156102,-36.09352431227974,-2.4078775507888284,-22.63216881729613
3320.0,6.316325907341424,15.861220952123954,3.6405962610048728,30.339446612275868,24.34148231473251,13.661173557276951
3340.0,-6.585984478308462,8.578883365372183,-1.8277577555288085,-27.907411564897078,-24.679553416518523,24.358480146609946
3360.0,4.051648778810294,11.043822909849288,1.5967192592611323,18.37575196757987,18.70256893252623,-13.095218636742295
3380.0,-0.3974229184279432,7.524359984375124,-1.8080381892853925,-0.20715286765622176,1.5847075173382144,-28.982060931188432
3400.0,-2.981613120964103,9.260363887412828,-1.9153454471694713,-9.368654545735954,-15.56215039002657,8.86036236980313
3420.0,5.771884739074027,15.227007023900363,5.560047530488547,21.265412439818366,22.433459245287473,31.499785263807212
3440.0,-6.4052727553393165,5.089929328762263,-2.9890517270730577,-31.23727911479099,-18.868017716390025,-3.8542045256451076
3460.0,5.057976592676613,12.292078126219533,-0.7981365490596242,36.35351522440819,5.540629420534377,-28.190717215466094
3480.0,-2.455285573471502,5.046065211707514,1.9219284637095206,-33.33860683538598,11.070861361808323,-0.45855932861078186
3500.0,0.902736396331165,16.481726562792456,-1.5108163590842152,30.503898790790537,-25.913748715248516,31.686408720827824
3520.0,0.3150562372313581,6.837749861031625,3.4066597885626053,-18.652516963604725,18.15677654347442,6.60008065324234
3540.0,0.062164724322939985,8.524847889698233,-2.9467002050573825,9.022124774983038,-7.198386144161844,-28.43893434731997
3560.0,-0.7845576307894908,9.568477177524628,-2.360826547707694,6.904734695951934,-10.437568889842813,-13.084597912990155
3580.0,0.42597798406133514,9.7042415551494,5.2170324315098275,-19.435633105313403,20.95948692045905,30.820240672991588
3600.0,0.669309171990204,14.80272981848906,-2.429312405550777,30.50270764980546,-23.087483244098387,12.33867561127418
3620.0,-3.386454588450118,2.9481973728336035,-0.44970092834505626,-32.89009133518655,5.075048692978918,-23.2281251254464
3640.0,5.219056280883655,13.14548829389429,-0.06900222268788264,34.01797736783701,7.234320652703846,-18.849215690186536
3660.0,-6.828019596629313,7.356382073565754,-1.8215330610627065,-32.115161706237785,-27.25077186377815,18.362751821296943
3680.0,5.824006344079879,14.840395768767502,4.764852025366412,23.95797676452909,19.850699359193207,22.190762053383395
3700.0,-2.9667647517527804,6.19919141967858,-2.708554991354978,-14.499472457697065,-9.056266393336257,-19.11173442348662
3720.0,-0.8251869607685435,8.033597718591562,-2.6186062219020334,-1.1919018418283036,-6.98710291366144,-25.832952788892477
3740.0,4.333423402721421,12.93789582118419,4.114652233606371,12.228952736205889,20.68070958465407,20.418167036583043
3760.0,-5.8493027343440485,8.657710813294717,-1.3163788961014846,-20.165324116390963,-27.764015150566212,27.492830484869096
3780.0,5.212680397870493,13.729192416209294,1.167256323157093,32.345212666791184,13.28027679129303,-15.107367449483288
3800.0,-4.042714158391998,2.4299385273207834,-1.3658311066553719,-31.304854382476698,4.506043350581942,-23.265857283355558
3820.0,1.8569716020347744,15.517567598411766,-2.3548092807978955,32.38010727886365,-25.105995251793942,11.552828433106491
3840.0,-0.8329221940310853,8.285471696875632,5.4136128715760075,-26.49835633006772,22.817056102905436,26.42335932889108
3860.0,0.28115574600537196,12.083443350798635,-2.5350461760335548,21.826122621554738,-13.945006522336493,-6.796290514681565
3880.0,-1.4734844027243135,6.3161140995340945,-2.392553488898429,-3.226012523540129,-2.73827543463408,-31.309250336929203
3900.0,1.6182140172577169,8.652671064365467,3.0296745777885907,-8.317358639680425,16.97616061777243,1.9689121158826817
3920.0,-0.5845591604909413,15.226171578386758,-1.4051356814415452,16.03607943968092,-22.60583072071285,31.68572110247415
3940.0,-1.5149900835291281,6.239040367351681,2.7863487101767945,-30.172604726505536,17.894587064618193,2.6726103692764354
3960.0,4.529093226231117,11.951749201420347,-1.7163093663201747,32.93022225841873,2.4577666502027684,-28.393414511992518
3980.0,-6.256414458889796,4.344997410422206,-2.74545498617612,-36.95782537623112,-18.70592815472591,-6.252190017825019
4000.0,6.870861324674513,16.446542602925913,5.367133064541454,34.60377801059164,25.976618591778625,31.075579549438498
4020.0,-4.948762072408456,7.263207185486324,-1.565686912603052,-25.61489345216218,-17.63496155706017,9.602306526304899
4040.0,1.8143586694206268,9.696917363399882,-1.7282685532664512,14.043315396035618,-0.04296647256148356,-27.390638236941907
4060.0,2.138985481141546,8.33516385739459,1.3783734456077372,1.4289762034839755,14.662630132366607,-17.547626875548374
4080.0,-4.637671273306189,10.085370221569624,-1.5720514275693596,-16.44722956169825,-24.915207997988603,22.24592229313638
4100.0,5.790020535627961,14.992872336372745,3.8545469965969805,28.600028092500967,18.75319768720308,23.757338220163426
4120.0,-4.511974511940879,3.496727599383236,-1.9135123324694452,-31.552381915097516,-2.0285434990173945,-22.971404661965988
4140.0,2.537230481304547,12.932727747043469,-3.689060989876906,32.72224062440458,-14.346982403306216,-20.006900457053888
4160.0,-1.5369135781746932,6.929222350240603,4.673061558486567,-33.572888417202,21.954677330022903,15.301649946490594
4180.0,0.5322990473777767,15.590486330856637,-1.2939804627817866,27.13213887528022,-21.919167989637554,28.847146308791885
4200.0,-1.6691448448758037,6.239983607339383,-0.14386694789177237,-19.69734216577211,7.391882659803089,-15.164374565842417
4220.0,2.1693122568896896,8.268324647729559,-0.10209562310645658,7.361347125927643,14.068063742391109,-27.77199460405952
4240.0,-1.7837625691697834,11.954596822213087,-2.407661939158274,3.1060281786373176,-28.52093800188749,7.31100385888395
4260.0,0.15321729900204847,9.41227645494296,4.6551415816988,-19.992889610283104,21.680790834975355,28.88412920239847
4280.0,2.4985209189937083,13.336466912810392,-1.553777352261616,29.729818671385267,-6.745983257979777,-4.508692073530472
4300.0,-5.8653620024770925,2.2806323569229434,-3.5246548698339355,-32.49690939522252,-10.386785421073071,-27.556017171400583
4320.0,7.5730891628371175,15.004763173781798,3.3677865003411678,36.769268251648484,23.57559537140357,0.17537841667393184
4340.0,-6.614226539547932,7.919502077910499,-1.6072816596893533,-26.67206641294783,-23.32659635074238,28.11276305020104
4360.0,3.8904264700928275,13.324047767939483,1.590628965981545,22.582229284181583,8.138335675582194,0.9692104937380366
4380.0,-0.34215094435733073,5.342768781649839,-0.6004106522414986,-10.049171292202903,12.532058308205642,-32.264251921481495
4400.0,-2.590612812240364,9.239239701930858,-3.637820800640268,-3.3187889459834112,-20.393693683675448,-10.829633607451882
4420.0,4.859268572231026,13.910977290416048,5.37732421718684,10.89130180902703,25.764536812187686,26.91424768210182
4440.0,-5.008285251245263,7.247605545483816,-1.1868550192641438,-27.252105339910013,-14.36461731517161,6.115562157868306
4460.0,3.1986858052612606,12.206259506889886,-2.518075542357812,31.28238363831929,-3.981046896541018,-28.167355964760347
4480.0,-1.7996459749986877,3.703375698155838,1.8807548196952129,-37.31802275199566,20.229751351460255,-13.644840491409557
4500.0,1.3647787423836184,16.655573496536082,-1.807465047149407,32.22548156036739,-22.466060201188572,25.235269382228058
4520.0,-1.7669775224276427,7.549159670454451,3.349717531503261,-26.989430450049827,13.700755758364654,14.984742916635255
4540.0,2.7753052911880443,10.23143769280841,-1.2574316808090202,16.635088950682984,3.864185550316651,-24.036101105411873
4560.0,-2.789199833633481,7.7349754621196,-4.277184813268468,-3.8611984317325034,-18.996237197558404,-23.790952912126645
4580.0,2.239321639551582,10.115082120201924,4.931128683930585,-9.024721593103031,21.036564974380475,19.05175601181732
4600.0,0.3654693499338325,14.67357056654794,-0.7295898974923786,17.427941848118078,-12.69874917349599,26.21752907685018
4620.0,-3.698689078408146,4.23095052998161,-1.3169652948126176,-30.99349024626385,2.181571198475406,-15.217058438455059
4640.0,6.719201252541749,12.587718084287987,0.7861047963660303,33.34941262957016,17.104873901417385,-28.446085191658096
4660.0,-7.5270670643285715,5.836469793668188,-2.5278179664762286,-34.07561490617377,-21.28260644978084,13.172602217577168
4680.0,6.36403579238891,16.708579888644483,4.660919425196044,31.350437982815613,16.930158072684442,27.993861559684216
4700.0,-2.778526339761116,5.9630096086773925,-0.8065255478395552,-22.224316722311716,1.1672134734114514,-5.8073481456390965
4720.0,-0.6209983472829388,8.697748378724542,-4.14741360876144,9.428199738371681,-18.370971945470696,-30.602649818284007
4740.0,3.5376796925430956,10.578335130051919,3.857569021313396,4.937986638122189,27.021039809484893,3.8898977438257365
4760.0,-4.466096155709242,9.99219933129439,-0.6134664468248203,-14.000787988583637,-19.424256060729096,31.829659685539568
4780.0,3.6897399140346083,13.647243005938115,0.6533791790197563,22.485727134200644,-0.4511466137619191,0.9457116210281472
4800.0,-2.39381360243115,2.9151908757461555,0.0057426711790158555,-33.603949219611245,14.174552251223428,-29.321283285615092
4820.0,1.7697534992090824,14.520573956175383,-3.8530440844365366,36.7100663471197,-25.938450345789374,-7.6974883583126505
4840.0,-1.5025719751848825,7.910018288133921,4.82123228967419,-29.942988336781788,20.258713846339372,31.747973846010815
4860.0,3.029651821104797,14.305815830690719,-0.3154046331819216,26.44553992272596,-3.080104077547264,11.553008563226145
4880.0,-3.2933875749911303,5.345309543725187,-3.6334670987970537,-18.70544708086315,-13.861229329267399,-28.90438848222234
4900.0,3.5451871032288054,9.324074063009288,2.752580192205306,4.049927769202452,23.206920652796732,-12.040112881945362
4920.0,-1.4576372234749901,13.471801801645295,-1.6606495032498885,10.26326517236643,-18.957554928731366,24.877471987234774
4940.0,-1.5153956467696568,8.235059840069553,2.1438957508955485,-19.590135564014034,8.409125458667148,19.856395946529357
4960.0,5.078953419840684,12.502149195800634,-0.17225005306764618,29.239211695852372,10.452785887517297,-20.102222358699308
4980.0,-7.405142916964905,2.892401794720141,-4.5044300370601436,-33.85409268940811,-23.551413657557912,-20.15733961329174
5000.0,7.335128049911196,16.653435685785663,4.395356962687156,35.36972289861914,22.387926943539014,22.236905411723804
5020.0,-4.76231726188656,7.66380947395117,-0.2276905061736738,-33.903421767942106,-12.137281422255011,21.833582151551887
5040.0,1.823769775610286,11.726348486992823,-2.0111860700983675,18.836283093182416,-7.380040115518463,-17.864322026037105
5060.0,1.3734555616862476,6.342161314839995,1.0160482562526898,-8.69272168859281,21.233997308633793,-28.16008069214509
5080.0,-3.316078014756959,10.373128347950548,-2.0972497413484064,-0.8457837114533717,-28.557471653158018,13.507825334192164
5100.0,3.584072802485286,14.182474159600028,3.458928803330853,14.91889524857659,16.191094065717554,28.618120331409116
5120.0,-2.7985120826072243,5.39450609573098,-0.08641030769707425,-26.024199421134984,3.7840906786899122,-8.804555800912624
5140.0,1.883890222984393,12.173124201569546,-4.612206097069026,30.41464324903878,-23.37518942581103,-30.750640367544644
5160.0,-1.3433872025545115,5.523728862951808,3.5731602736060664,-36.1676312268795,23.51360774660965,4.9094368910279815
5180.0,2.569746632361918,16.615107004255407,-0.010136846314006263,26.11829549179285,-14.953248397767581,30.903258855286865
5200.0,-3.9198414088925544,5.983718144428932,-0.38769236392958195,-23.78360176735083,-3.7858467195102965,-2.729692001770562
5220.0,4.488317525754175,9.371241578057365,0.7501863772771942,14.252055768215591,16.940806618124906,-29.423455590491336
5240.0,-3.268390653307382,9.253777835070004,-3.5317500979383496,-1.9259492229825392,-24.720445675135437,-0.43167931011021876
5260.0,0.7013261268005667,10.788846890756256,4.486009617172121,-7.323531926531636,13.816796491602785,30.83868729699131
5280.0,3.182954316919166,13.812198243431968,0.8790032725688157,23.633871082493673,-3.493014977934916,7.3430164198880545
5300.0,-6.079387303077067,3.020937165269933,-4.021292445231154,-29.259567659172845,-18.340384440794395,-26.80982718831404
5320.0,7.656946253431671,13.87917719265427,2.6120020311780343,34.64587666875959,25.28938834948848,-15.069948817862386
5340.0,-6.345248789036323,7.112593145096505,-0.7311044869851377,-31.301544236448095,-15.859424828853976,27.447684398380186
5360.0,3.9271945538945334,15.097105688936406,1.6656493835741548,28.041921731674424,0.45756244795397716,14.966830487027577
5380.0,-0.3923319348421216,4.9113889094775365,0.6319136017168997,-19.69710530225354,20.260845012963333,-23.992350113910536
5400.0,-2.1736773946892356,9.31647949833301,-4.940327705743242,8.446116700332874,-22.886592610057836,-17.02511385970535
5420.0,3.1502383869002295,12.37883998179429,4.158780896546923,2.8020419671108225,21.01835126086527,19.854396240365777
5440.0,-2.5249044601505903,9.254579900864368,1.191567879879877,-15.194071160606438,-2.3434620231142143,22.02301431204602
5460.0,1.5925910414686368,11.803495536541119,-2.9695207790429925,25.31585440567737,-16.285337860156424,-20.59807572422434
5480.0,-1.2921760416410504,3.2150885072522413,1.907475734201927,-35.21911843155435,21.760324869997607,-24.43700952987511
5500.0,1.7842907490746736,16.204973544703506,-1.9334129182798323,35.99670882150094,-19.61641940025895,13.704013157964997
5520.0,-3.034232021861482,7.660797808279378,2.561029547918739,-29.517128210858207,7.401269571852228,27.67558663026427
5540.0,4.796820458361465,12.499110856934886,0.7966168578948458,22.9217415411912,14.571441348693234,-12.801419735879309
5560.0,-4.881811832366518,5.871045020213482,-5.183662839455148,-10.797135968962378,-19.7607300976653,-26.665977108545558
5580.0,2.932948831587193,10.487801649537024,3.3576903385356838,3.765180500670726,23.98039568520743,5.198615233879212
5600.0,0.39989765506011804,14.020863971152487,0.6145134343307347,7.423110429665413,-8.222035864337187,29.870909778949713
5620.0,-3.985269071595579,6.705292062573053,-1.6268826635477192,-18.89990351952829,-9.6710193430233,-2.104356770637062
5640.0,6.515369094220491,11.43765655548566,1.3698340676426868,33.22374141332742,20.837572954454625,-28.42865226306803
5660.0,-7.089750605291933,4.546664250782935,-3.449368099263151,-35.8986037010493,-24.972710049074582,-3.007042944283766
5680.0,6.003601897198292,17.080105989372704,3.5859150298831293,31.528406217491195,6.64236658633472,31.37485645518338
5700.0,-2.6395953935273178,6.670640037218888,1.9530095141167947,-27.4057677067649,6.76085550829637,6.8372722884698875
5720.0,-0.2971784044958247,9.864735744369913,-4.907273672802212,17.1507279642906,-22.404317955326963,-30.04194579057992
5740.0,1.944361618970952,7.729383360119767,2.6217268496146966,-9.719294074675936,27.696867795265018,-11.146903115524369
5760.0,-2.2046821253217654,11.040517965048812,0.14963282188403731,-6.851954841868444,-13.605781258813298,27.835169373154578
5780.0,1.4136266106951514,13.383072549740792,-0.0428478965280252,11.667595998888167,-9.603219814565028,13.836003877210171
5800.0,-0.9405655047129451,3.9246420699478097,1.1886177523707873,-29.866591330557046,22.543680038913653,-27.396613834315254
5820.0,1.404064394858716,13.036618646484097,-4.776486286845308,29.185362544991662,-23.940349342249842,-14.010122639611687
5840.0,-2.653144821979141,6.6596692168735405,3.616195985301099,-33.66426522042343,15.620049274103199,20.887030278225943
5860.0,4.580452340950062,16.1458679409908,1.9564745910803867,35.34124012097913,5.299162680014417,21.05715989284119
5880.0,-5.259465483097934,4.606719123795533,-4.17206478405709,-22.809325249132115,-20.743760803245998,-23.619128285253243
5900.0,4.865663975262803,9.43305002538305,2.08587895706602,11.431853276121874,23.32130396009867,-25.730324920799298
5920.0,-1.780964744569223,11.02317659995208,-1.441125984679542,-0.11860532840392742,-14.10197035130842,19.11804417382875
5940.0,-2.0882619355709764,10.072047876565259,1.3826639623054842,-10.631600605511668,-0.8091781663288932,26.037621371118572
5960.0,5.318944081656908,12.374175036393495,1.626453579535859,22.062136287955386,18.361884801932145,-11.562527484279912
5980.0,-6.898526793549127,2.7194371503715558,-5.586798084616062,-30.216252761886047,-26.03956960228771,-27.669739439817302
6000.0,6.484125221409103,15.823881527259363,3.1647272204064003,34.35124207700853,18.968485010878656,10.173391188522352
6020.0,-4.455357695177946,7.4302300400061005,1.6215088714445565,-34.871433816973116,1.4576684797379502,27.622599486767797
6040.0,1.336198986551074,13.350956038191224,-2.1561424062659036,28.207577629025955,-15.258375566591068,-5.659646904204079
6060.0,0.8070592021120275,4.695681204344602,1.6410146027051773,-19.862733604198112,23.867747737786242,-29.37042766330806
6080.0,-1.4355744169118954,10.201319727680394,-2.833738799343436,3.7245005057268514,-17.846343636691984,0.3913830207907528
6100.0,1.116614004740224,13.49521097674046,2.32237615331144,7.414401353160435,2.668235236883427,31.488847699650226
6120.0,-0.6546671210934434,7.580769221220171,2.8566227971635496,-21.02839576461962,13.729677981539732,3.7297534760285203
6140.0,0.4663019748573335,11.639727506684325,-5.496125892423437,27.949435796748524,-24.664559714510315,-29.373137793098493
6160.0,-1.5802467997122993,4.240958402770113,2.2028316283927496,-33.26827970685137,16.425443749118067,-7.2288921340824785
6180.0,4.029042216443792,17.07553407847978,1.125388753898048,36.4469085150544,-6.936179479849205,27.408864543464222
6200.0,-5.622478863329971,6.306478915849948,-0.8537945905251342,-32.069220966880074,-12.461002761363254,13.690586777759398
6220.0,6.042795598523707,10.96198108994592,1.920538841704535,27.099043783940907,20.67308382570738,-22.35209445106803
6240.0,-3.828511315272559,7.0024321137766625,-4.5635580100741455,-13.827573532132284,-23.81792546371917,-17.378717882824297
6260.0,0.5381443378283688,11.59959041046288,2.6663473005132907,-1.3551942375392196,9.331699474171646,25.109512321138542
6280.0,3.492892579287855,13.037176415279925,3.1772910078708376,12.032264002058497,10.4967806184479,19.524726623205222
6300.0,-6.247211125108801,4.49846939216709,-4.812637310115479,-26.95902609258192,-22.24659560621027,-18.559445563031016
6320.0,6.748677426280994,12.256511613649167,1.749707666793653,32.58706737532474,22.97584347233694,-22.496391593781848
6340.0,-5.7715816827242925,6.237667409478873,-0.17805514469651146,-33.203934701522755,-5.109100580391557,15.553451941382079
6360.0,3.341447518670838,16.624603894809624,0.6068252836842287,35.26464217905226,-8.815160649463476,24.610064910979975
6380.0,-0.8078315877143971,4.839018906650152,2.195508838444203,-26.194858824998164,20.003963723216998,-13.183506259385984
6400.0,-1.018423154801549,9.995236804513455,-5.161042767459467,18.372379582452076,-26.910639905222794,-28.217261684554476
6420.0,1.0128557900723463,9.974781397712205,2.2288867584411003,-3.8350664536295147,14.208479946055979,5.68396749206296
6440.0,-0.36029762195675885,11.384820141280425,2.731960695079999,-10.654739896229707,5.491670538862622,28.1332890686627
6460.0,-0.07684339881232044,11.962667735488122,-3.2614559412794084,22.29925017742711,-21.169534684102015,-5.098194143519795
6480.0,-0.5177766064402507,2.87818792873181,1.5107699989538446,-28.409901955643125,28.72595726846524,-31.518532490955483
6500.0,2.642900146479319,14.413506822587017,-2.0249634250610304,37.66966058893409,-11.188388821409589,0.6011423398839658
6520.0,-5.169320615343199,7.305023620036393,1.3806115799860035,-36.872484734870305,-0.9133967382747836,29.47936618470766
6540.0,6.235164540388746,14.502931512851328,3.079750773020297,30.07718476449522,20.354138817134338,4.02490831010849
6560.0,-5.772002712577877,4.419954553345083,-5.186328748656522,-24.147824497649584,-23.046964811373364,-27.517889427688768
6580.0,3.274489501633662,10.812633152219034,1.845489346132984,14.074484899928253,15.252416412850431,-12.37915408276979
6600.0,0.20016216739530768,12.338263075766571,1.7664815516545669,3.7120773644571083,4.601114877562244,30.285009553714858
6620.0,-3.9238113719095358,8.66906500329123,-1.8189161745930946,-10.042199534261123,-18.681620654537905,13.247491040564142
6640.0,6.252747703629598,11.197502449608123,1.7913171443123153,22.978175521605888,24.00552200320231,-27.51860853864371
6660.0,-6.0594729366381825,3.2570245509241573,-3.463663211688574,-32.343109999308986,-20.596676715969068,-13.934315678901461
6680.0,4.641010549526686,16.608607904877296,1.5788596207511434,35.155691376769695,1.804880534687887,24.169018015725896
6700.0,-1.8893801113884314,6.696792959598653,3.569651770424681,-30.85777935709152,17.11800774034618,19.817202707359446
6720.0,0.42394676089661915,11.618703617272628,-4.744336221791778,26.890790952944798,-25.668243296186503,-20.71414438372268
6740.0,0.3875900232282289,5.682630084346086,0.9535528340610844,-18.96730569507269,20.99755963818801,-24.81609314424828
6760.0,-0.24616565274112823,12.215679362293054,0.8486170822666581,3.501215612000067,-6.847695157609715,17.67330630254551
6780.0,-0.561375725922695,12.867955847598823,-0.6333598799781259,5.445542455698346,-17.238181987405266,25.776061772941297
6800.0,0.24313237173657792,5.6483879162936885,2.6904236438775047,-18.730997125372795,23.686246082430173,-16.554395376607676
6820.0,1.629931495048879,11.574545674782179,-4.639542238838149,29.214994707285598,-22.040579381896467,-29.99283760580188
6840.0,-4.083508312829433,5.884819694729345,1.116396666283441,-36.08137467321757,6.128726682988933,9.210293078826213
6860.0,5.971647507331201,17.22680415535787,3.305303841953352,35.83829296828036,14.59093189449815,26.45160287402005
6880.0,-6.575515963082304,5.440606978355818,-3.781913268655218,-28.88246222199022,-24.285513718598693,-7.742932636071331
6900.0,5.525611263116654,10.507801270027395,1.2097452854082362,22.87939816271736,22.65555873863975,-29.363940866119126
6920.0,-2.142665017510187,8.71398847617138,-0.9831478454861886,-9.030880985462863,-8.392786947577045,-0.9670441212279388
6940.0,-1.901086087709622,11.839616004596019,0.4941103727557995,-2.3988024651859647,-7.694887129467705,31.50022581394652
6960.0,4.640404605547886,12.124025439410957,3.05357582024618,14.44934827278426,25.920646963877196,4.751943499756139
6980.0,-6.260634852018919,3.497549506039499,-5.302543247099762,-27.089831170790866,-25.460034087544912,-33.394924833845636
7000.0,5.153653044115766,13.873981398626048,0.8640614136149662,37.967893526234405,12.484469180733086,-4.447842957976467
7020.0,-3.4700525268294444,6.995751647434835,3.3114290122102386,-35.37135822620416,7.195996702977867,24.458156126802507
7040.0,1.6251184738559548,15.20789133651784,-2.3951368546387553,32.45430838803508,-22.940115310469757,11.659339772838898
7060.0,-0.3140195722576603,3.7483717503535052,1.6558773757970413,-27.17144504064184,22.328741383892254,-30.202324210807124
7080.0,0.335110233897958,10.865550878434394,-2.9279985464563962,13.664814621875564,-11.942158427197851,-13.9901805766287
7100.0,-1.210005929491321,11.430929676380382,0.8136655406500843,-4.315859956016928,-7.153778212116483,23.8584175713246
7120.0,1.193907781144833,10.14631128401793,4.189558173717497,-10.653653003839768,23.553410136731323,17.96032475493438
7140.0,-0.33524526554606215,10.986577635844167,-5.0451587930234085,22.65162647685144,-25.854649155836714,-20.581901189097227
7160.0,-2.2589959391659584,3.6728520577715984,0.8973524753259974,-28.361953449053566,16.0930769554092,-21.434424040332665
7180.0,4.973515762704319,16.35786149870614,1.7468109786758075,37.934049785529666,4.7179553491584025,17.0031882015636
7200.0,-6.741036977591859,7.183876599656392,-1.1657270291922488,-36.29893839197363,-22.20169044901335,25.045500614947873
7220.0,7.1226415709059765,12.739512142898516,2.4408807572936317,31.514194834865854,27.17886370040647,-18.348968745450026
7240.0,-4.179217320433536,4.504229710292993,-3.8938628880367063,-19.93990800279294,-19.886067387829605,-28.352276016798168
7260.0,0.7296698663554799,11.869280416973181,0.6741709376006068,8.8483290792342,0.6781848170304554,10.37965625785633
7280.0,3.349315133885618,12.956673860834236,4.601394143653396,6.3749021342620855,17.584653668291168,28.745145379211948
7300.0,-5.104863104980587,6.987730784593632,-3.8465125214616496,-12.962611309780272,-24.52033656446461,-9.45293785016024
7320.0,5.40922071258737,11.511156551619214,0.7074510936666881,26.213263508349712,17.912301104609917,-31.524081972047345
7340.0,-4.613064413577051,5.404458920484055,0.13194188518760488,-32.94220414025414,-0.5409538902116802,5.108841727120177
7360.0,2.4129863877696556,17.04803231235884,-0.44435646298821313,32.84771120739719,-16.33097992128576,29.258655509761905
7380.0,-1.0928626630240739,4.94065526128224,3.596227943321272,-29.352265486003137,24.69686487509136,-0.2883449890389941
7400.0,0.8545972072479527,10.954070568014924,-4.4092473598883055,25.209600520510666,-19.60323535301736,-29.686762065975802
7420.0,-1.738889962865453,6.906942985085007,-0.17431304192545727,-16.833042511087662,3.1536137307481473,-6.280416675960666
7440.0,2.37345551386416,12.659599686916394,3.840861340984454,4.300292334084727,13.538566855516105,30.61266462023733
7460.0,-1.2903700060250958,12.130410583120955,-3.047945405306683,12.65308141498426,-23.676347999200352,10.47215751114082
7480.0,-0.4183414935387221,4.405826897615009,0.8541435286176293,-21.308019336366705,21.697891746119996,-25.909616080642497
7500.0,3.2028051779424747,12.802458117570113,-1.5841583134107124,28.6877784137292,-7.3642842413615535,-13.500525487397839
7520.0,-5.860095073276021,7.0556140735604345,-0.08027894574336708,-34.29666973564853,-14.945944122034064,29.339247055502025
7540.0,7.510933133507374,16.254705669389466,4.34021862901706,35.99791539042659,23.595049014469335,12.07190056177922
7560.0,-6.620768980629094,3.333200469600389,-4.734491533949388,-27.390239425345356,-18.654183915251767,-23.56370229477793
7580.0,3.833422301252554,10.978321698316723,-0.45948629711020633,19.648507068481898,4.644823599562786,-23.191200752818588
7600.0,0.47348720124048,10.052261057325238,3.2233399763842088,-9.424072491294687,8.88318917731452,23.06120132692114
7620.0,-3.3133419731529212,10.826039440261775,-1.4684726632785214,-2.8302701457127823,-25.35963014391214,23.41877956157592
7640.0,4.835871044930334,10.892920658535628,1.972140653417703,20.676575129548294,22.82293676253213,-17.492232991027
7660.0,-4.841477282199504,3.9042635120678026,-2.9357363424494243,-27.280938393093972,-11.403077314576727,-22.419365791345744
7680.0,3.4275730596679086,15.706118604597087,-0.45505502779982976,34.198134869931174,-8.95889803456362,13.208996727254304
7700.0,-1.7207857664536421,6.87083250966412,4.790305001690377,-33.86618081652787,22.655851587671975,29.561034638999487
7720.0,1.1226523952739735,13.295087722853387,-4.12509755004291,34.360499949030896,-24.51390581322927,-9.950730855327617
7740.0,-1.4386749592048385,3.6224701077225236,-0.4438654677918942,-27.32700330012609,8.523296884895753,-31.838895678698858
7760.0,2.7806528469537146,12.099687025134296,1.0554289882050993,10.217081698788729,7.444303964766815,2.596858744092277
7780.0,-3.071795433045692,12.287895281614905,-1.1858514377548826,-0.6840790207719339,-20.554963246340975,33.0102010972894
7800.0,1.4835092247074353,8.050602602123005,3.362836837278186,-10.906064521627671,26.07511861538236,1.2190843674732366
7820.0,1.4335895306679352,10.749010675204023,-4.02594530683275,24.120412940993187,-17.670042944487527,-32.44999491716599
7840.0,-4.1887319113612,5.1568850199509555,-0.8648735574739518,-31.13473956653336,-6.202595302267263,-2.99306297221626
7860.0,6.819812064469732,16.821775640311632,4.679259558230397,35.999716954699736,19.814825694913782,32.1934677317095
7880.0,-6.990556523723508,5.336875578460818,-2.860886093969107,-35.80465671441325,-27.321279734386188,7.911826778943546
7900.0,5.718896667510361,11.745033304631194,0.31962514955305305,27.96198017046328,17.717664001051276,-26.568644634704395
7920.0,-2.216880581969404,6.2843990825334926,-0.8193892499138378,-19.28711956537193,4.276148287062064,-10.350616395721971
7940.0,-1.0183765338295045,12.910494242300908,-0.5763485764043063,8.61165597766058,-20.757076182369936,24.626802607541027
7960.0,3.7824009037416477,12.000703041891356,4.6214049789661455,7.592886022611825,23.401712874838175,17.39963959571653
7980.0,-4.482845472824412,4.757026148477474,-4.36307345948493,-16.971232114667234,-19.274839469316312,-25.263613122158848
8000.0,4.054280975147195,12.138696168851235,-1.387361583336431,28.139893447136505,2.0689055805623533,-19.08369428478235
8020.0,-2.188707314628319,6.269683938867857,3.840570341564822,-31.897711124220205,17.89971113878087,20.65653685518088
8040.0,1.4422962448303112,16.76959291803401,-1.9353487971052017,31.348217506821857,-24.335747838994518,23.31062544492244
8060.0,-1.9089813294497644,4.127865453625301,1.5658372128956581,-31.441438917655965,22.73385577470162,-19.707183443996822
8080.0,2.4964967172208383,11.00965803761973,-2.0541377257095133,23.979542946117704,-5.5425634376581385,-22.58764778835406
8100.0,-3.5414788439985605,9.235481080318953,-1.0694078711229562,-11.402109109418989,-16.130268142265273,10.622448184506649
8120.0,2.7836125083558696,11.695995028228488,5.271244037712125,-4.462774839982193,24.71638890390459,27.522740053744112
8140.0,-0.8870419864815386,10.661582747719427,-3.6120781304333436,16.488659866516564,-20.19700045457936,-13.083991137247214
8160.0,-2.394390521788506,4.129350171851895,-0.9163158328744772,-23.275201307203453,3.178200502033707,-28.21391630879374
8180.0,5.4644379695484036,15.02407343430722,2.3773163115595493,34.69806288980681,19.22814125231471,4.904496750363531
8200.0,-7.418128833387978,7.001447779373928,-1.0854199967301499,-35.30214964686393,-22.493469720053525,29.127371763526977
8220.0,6.70490134027615,14.464229252792363,3.0653724870637586,34.005078998286095,24.436104652433986,-0.9588567404179644
8240.0,-4.878634843824431,3.6342583917347095,-2.760959908493318,-28.187894848166323,-4.5376620899711515,-29.498851224457642
8260.0,0.9669972083329176,12.125415758136379,-1.5808480856223819,18.20222796233557,-13.040548718909546,-3.747581127630545
8280.0,2.420335938852213,11.685259437424174,5.344701446350103,-6.401398221401143,25.341234618862067,28.763201724050003
8300.0,-3.489999550561948,9.290253059729029,-2.8018626848262276,-8.203057635335703,-23.671432645706137,7.143448060453698
8320.0,3.8488867978043344,10.157457716147,-0.5044670927059232,19.031022007524925,7.604086721791012,-29.999086856088912
8340.0,-2.534550786060853,4.269986339807409,0.27026618243679373,-32.846258129684514,7.6346159957805195,-10.776034320637873
8360.0,2.0017695083280245,17.127785114720254,-1.054869940144543,34.01201375476339,-23.016208583500912,27.251298898724933
8380.0,-1.7274936998893058,6.12667571401946,4.462005260482468,-35.73739860144359,22.1667227584363,13.990843744501463
8400.0,2.7278157405860144,12.012405975812628,-3.2418091538045335,34.19002148598792,-11.079386198138826,-27.057284761298064
8420.0,-4.027286117253447,5.460214433083089,-2.333970553331708,-22.229336899593243,-7.436716998810962,-16.614013699559848
8440.0,4.331246372724639,13.53737931420393,4.7440811838645,13.643177020449736,22.247760517757353,24.209722655125606
8460.0,-2.3806274975913952,11.818117398197444,-1.9188341465828935,4.118651816758389,-27.009315014234424,21.059377607380465
8480.0,-0.08446407037018337,6.290157562029386,0.3621217786877173,-12.605479657053396,12.505597159636116,-21.36467167545051
8500.0,3.4949065651851194,11.216114809812762,-0.48856612196728555,20.35235349707243,6.970281077269876,-26.024612596119702
8520.0,-6.368326971866972,6.744881216577474,-1.9115573014978173,-31.13358734637578,-17.219451819926952,16.355235594577614
8540.0,7.296685469465098,16.975630061511204,5.331898696331207,32.86078947173668,23.80352290183527,28.932266300789646
8560.0,-6.303827607474952,3.8228199401358505,-3.1978235598399443,-34.59757121605473,-14.669932370968553,-15.547255698896048
8580.0,3.1493832181397505,11.099499682027714,-1.9386448274391157,26.06755755452951,-2.7491269333615875,-24.714533294691194
8600.0,0.04662576863166343,8.686027383945945,3.187823750592032,-15.384205489657077,18.010999523685168,8.094742327669978
8620.0,-2.6186743290357297,12.780889321146384,-1.6287357835325658,4.637563985970483,-23.03342135083801,26.80365926069551
8640.0,2.788219181189342,10.783728911339768,2.4093350486206084,10.81424013436601,17.52307084944382,-0.27910948545607406
8660.0,-3.0002366197271835,4.422558882173716,-2.3793331227053853,-22.754494574977592,-1.5730588312804894,-31.189342911186333
8680.0,2.093266760992833,14.05853134112783,-2.1624204059929024,30.418786117221526,-11.014516558963424,-0.1212739346378665
8700.0,-1.3542385679839173,7.219947958170156,5.598146543481017,-35.242047447365934,28.37742651329388,32.1895164653759
8720.0,2.411288000493493,15.62787433172355,-2.598770125579594,34.18333765972796,-18.08167016467223,5.966775032602506
8740.0,-3.4985887575351717,2.972030527531351,-1.4082007687691374,-33.74568539786708,1.529086143443951,-28.239804848708033
8760.0,4.245271798908305,12.52419567528015,1.4244838462316598,26.24680535108289,18.343343115490192,-9.10307855213229
8780.0,-4.444509938777579,10.896126647772284,-1.2936062832125732,-11.388271016883909,-24.191707168116878,29.381474773570908
8800.0,2.499614172162273,10.583588448243985,3.842945344052134,-1.9176366214803144,19.35947101355386,12.26449696751994
8820.0,1.3600499216855444,9.840074453342766,-2.4516578298839073,15.651822913624287,-2.599207552680328,-23.619627976639055
8840.0,-4.836334675646967,4.747020059084809,-2.5490811838745717,-26.23378842916442,-13.876695020751573,-11.48953264493721
8860.0,6.835348206057453,16.107791248336955,4.596455916981132,31.664677489592044,25.588806988896078,24.595393844105295
8880.0,-7.004384419454435,6.345682112538029,-1.5901970373242913,-36.02029764299202,-18.788255310255778,19.62288320432481
8900.0,4.936158187469593,12.989541092497172,-0.5593596321253624,33.36706401514363,6.994013808886999,-20.917918109867294
8920.0,-2.118015244008479,4.124429503586071,-0.04977854033575724,-24.82471561749422,14.706735572184623,-24.33948949645221
8940.0,-0.8921779836912676,13.557981522293478,-2.2483139828941,18.411050577259378,-26.113456700926395,13.658816644555259
8960.0,2.1481956537418205,11.403958577392213,5.154582585202015,-2.114443323380284,20.980203313033876,25.07927928627783
8980.0,-2.663874331734347,7.128109323959344,-2.281903900815648,-10.422072940602103,-11.135751233765566,-13.712680713181724
9000.0,1.2824581584587382,10.33706429494608,-3.0717750046162853,21.615116539682013,-7.721634364514636,-28.447511379783155
9020.0,-1.1181751305348848,6.543888311889912,3.7866279079468823,-28.093947166447048,23.760942538273003,11.586697051295527
9040.0,1.7708586877037202,17.131528693834525,-1.6051513673498456,37.82396877880428,-22.35232018210105,30.10514733731389
9060.0,-2.71961574470313,4.3589004002071485,1.4532844125165645,-35.67943396630323,13.06800412548323,-0.8232274471906438
9080.0,4.857415339702303,11.734518724050137,-0.8623075843256578,30.940025917163947,6.511053059974536,-27.915164660749955
9100.0,-5.005172383998346,6.912469575915292,-2.9309617710043527,-23.7556897560497,-23.04465600346795,-0.10136453528151201
9120.0,4.3338921470593315,13.596864519939801,5.749505492773598,10.619575016004429,23.98756502587885,25.385749573749056
9140.0,-0.9004981830502904,10.441358116478742,-2.0788847316487895,2.758798164545631,-14.95624948884478,3.6621912623720787
9160.0,-2.561829916647226,5.140430106161404,-2.62987900880307,-17.841013555851625,-5.050366004638801,-29.11445875706236
9180.0,6.0380922509837065,13.14154763516217,2.1291466037076408,26.190474912343575,20.32398502724056,-8.69286016317696
9200.0,-7.320775835432267,7.2658033704705725,-1.5313810886489083,-30.858868522920304,-25.475750354231895,29.43167138856532
9220.0,6.4793533928039055,15.837527044761874,2.974988048221155,35.493520866532705,14.958551984351635,13.81849700165757
9240.0,-3.775693481540861,2.898758593724059,-1.6969542601824408,-32.95743943324774,3.532535805494965,-25.78813923213862
9260.0,0.9745723511754243,11.988216712129637,-3.7897817489816448,23.532203565543455,-16.439357617697947,-12.612871015524222
9280.0,0.9137746195134454,9.891648128204666,5.251226940076255,-14.422639033646927,24.72478496824326,25.102644419872554
9300.0,-2.015596398745012,11.827873670130607,-1.3001121823963264,-0.2209474303731973,-17.422804839823872,20.195005535533042
9320.0,1.7554151422137452,9.670171482969925,-1.4812816597269918,9.72215724554821,1.175655425864187,-24.44582449083463
9340.0,-0.5252010048807578,5.107001922603437,0.921830030339939,-22.758899257345202,16.019406031067206,-18.371265704683243
9360.0,0.7252209330252333,15.46566614210829,-1.9963849001798526,29.293069728885822,-24.955345898260866,15.708115720118895
9380.0,-2.244626009661301,6.798638920179753,4.558693423972371,-37.387417324875926,19.000043154334143,22.084818811766734
9400.0,3.927372019760523,13.567164141554015,-1.4764132804833165,35.26527914944735,-5.63516612455196,-11.992944180730493
9420.0,-5.636965225380096,3.513650246256925,-3.5828839427856622,-33.26767542126621,-18.016021589478974,-23.879329536542542
9440.0,5.131421160602254,13.86979525686565,4.412756265145158,17.24532746740239,20.944272781042557,7.95785059751853
9460.0,-3.462723836178233,11.00188337278931,-1.3051228638778969,-9.84572440194196,-21.677683354772437,27.997960161445206
9480.0,0.0631328027974944,8.613881515903826,-0.04382014433687298,-3.932806002399896,6.787733292786463,-8.954628831601296
9500.0,3.762749368076499,9.77917463957977,0.022135513039551177,15.404878662243533,8.396395943977698,-29.923436094576772
9520.0,-6.427968060816738,5.872975145429447,-2.7781493045133665,-23.41683354384888,-23.693530705506443,3.0481811809239336
9540.0,7.105471497047156,17.089536314299913,4.986095177690491,34.76601297895991,22.67582698205617,29.73215097030675
9560.0,-5.464855439856916,5.019798703487915,-0.9400845446412603,-36.02876103956295,-7.550872578747977,-1.9409860818937463
9580.0,2.6170291501804583,11.989742947424592,-3.5599418325928003,30.220029551815102,-14.762962023069436,-27.476262013723847
9600.0,-0.05932891687586889,5.794954488604445,2.890769626835901,-23.176562822735946,23.809382092705842,-5.212364156190269
9620.0,-0.9258576281985446,14.204539832608488,-1.0744378937561943,10.54341702381791,-22.127785597925325,28.5909252264465
9640.0,0.9358638866948545,10.46549951129703,2.063010814209678,0.6701126051533288,9.078209226209985,11.25876794861743
9660.0,-0.3893786725979593,5.456765853366033,-0.647634739651241,-11.168598952433413,9.745365993856048,-28.68170217227874
9680.0,0.2841434467791746,11.884023408667792,-4.20777284440819,23.792129871863875,-23.29420245929357,-11.480057262565595
9700.0,-1.2215772146258361,7.713040379668138,4.876132629452532,-28.94603754686201,21.401824861247853,27.763808477243714
9720.0,2.817212705554399,16.330489239457837,-0.5548082233940503,39.53388857538113,-12.482310690951072,15.811601599049432
9740.0,-5.080812598211005,3.0749377893050216,-2.397922529880657,-32.76419664778053,-5.4002934211506854,-20.23114618421818
9760.0,6.331775668866058,11.907395307565084,1.4419584887907555,30.62357134236077,19.77788814268691,-23.89612341632202
9780.0,-5.3889585742430635,8.475364509275384,-1.8832091422791735,-18.642879829406187,-24.037019369669792,24.317281662659994
9800.0,2.564097148428005,12.993851000439857,3.609914374103983,6.112426808548512,13.867704518249262,20.74320817090032
9820.0,1.3576295570677344,9.114591969191846,-0.13936526522952714,5.0890182474441445,7.22067957860285,-17.44073716252483
9840.0,-4.639872937698071,4.960293374843029,-4.361477281829712,-16.593837370517353,-20.74158105361311,-24.84170055564785
9860.0,6.491954869888032,14.623057268523196,4.30817634102597,26.571124071199144,25.22354448090226,11.116877985502711
9880.0,-6.119674176947913,7.510179196077976,-0.2797063153263428,-33.327502167193124,-13.332985202807938,27.882439497399087
9900.0,3.8253955714334373,13.8801264962972,-1.3712970859732567,33.17748547980101,-4.754639691626549,-6.526662251404067
9920.0,-1.9590209446475308,2.8897262709653955,0.704978210053267,-31.435649043102536,16.045360849360648,-26.872230766565938
9940.0,0.05040903050961752,13.673138659615542,-3.1941319398365384,22.877118951436245,-24.358794822494193,0.3388388118526482
9960.0,0.38859870601788943,10.651904852904279,4.265375715924121,-13.684713039646555,14.704614204133044,24.902014603285778
9980.0,0.1675864205889637,9.637993633481477,0.09499714206099841,0.7732691431677913,-3.9250458641201584,-1.6469642283205848
