timestamp,ax,ay,az,gx,gy,gz
0.0,0.3607591096507387,9.676639406788297,-0.23662251031278878,-0.5629310540756055,-0.13585980115109958,0.5667235661481177
20.0,-0.3807092531970287,9.374442501873673,-4.413623674234003,16.38112262640738,-17.954532658416955,-30.07252720828582
40.0,-0.20853915965936046,6.310515220723665,2.957209767248942,-24.888507246039573,23.321721873329324,-5.013152045029817
60.0,1.5347457201382184,17.21686110907958,-0.45870655460753584,30.883275071893106,-18.230587853554187,28.11829790423509
80.0,-4.458667802953432,5.339015784214304,0.9573180402385848,-36.25413042206483,1.2598045540783145,9.284106096579157
100.0,6.418038128326445,12.373724889150461,0.49397370466613744,33.773805808456316,12.18064738117385,-26.491773265942918
120.0,-6.733770528760236,5.005532087537426,-4.160802873135897,-24.448464609025706,-24.68085388400183,-10.030596661935107
140.0,4.756057429214287,14.780216772609466,4.981653190252502,18.680552938560716,23.06068298924149,26.753434838947687
160.0,-1.1546253102508266,10.026830679812981,0.09725049336128139,-5.564100986557878,-6.594261630444416,16.896926820042616
180.0,-2.562312707998704,7.021635153354087,-3.4151508817720853,-5.248963153229318,-12.480666041408623,-24.45983897619825
200.0,5.472153105814623,10.93081182790017,1.9212542503732297,18.52505411614834,23.198919015264014,-21.22752381678698
220.0,-5.984185093577642,7.259328051750449,-1.7393419312488352,-28.665884979685895,-20.5925596209541,23.049365671324292
240.0,4.9773510137035615,16.50854298427177,2.597228777523419,32.17960305984261,5.539696894980928,22.906654275865964
260.0,-3.221617979245694,3.4866640630676837,0.4107429345823313,-35.16410665840091,14.12902683378525,-14.228491822039384
280.0,1.1094113346007315,12.325354262553363,-5.284651348108941,29.992123392035168,-23.762558104955406,-22.536001350235228
300.0,-0.0316215333840312,7.79287669803704,3.77111313933315,-22.62546857294094,25.33714333998384,15.078538491112045
320.0,0.42888046340640223,13.73840404519916,0.21031968389458056,13.895172416952686,-8.284353764808404,27.058814373617853
340.0,-1.1890610211573533,8.869980447557436,-2.056201866339515,1.5309688438512723,-9.749512606994777,-8.125805390861789
360.0,1.1651088293738483,5.514819146470109,1.0828605705964283,-12.669006742299937,23.696327467873626,-27.261108252623153
380.0,0.18365593396534,13.932812422505627,-2.9890738642120223,22.96972698454403,-22.031521873195057,4.613200834621706
400.0,-2.6619944369972535,7.653555880599942,3.718407177639081,-30.177792196053343,10.882101308047408,29.658403903868873
420.0,4.920877698458428,14.76571418264912,1.128275388064687,37.14309649079122,5.239021927407198,-1.1876682877290574
440.0,-7.0587491246784975,2.5194815331019784,-4.906858479425906,-34.06347624670659,-22.038368941817012,-27.91349203456737
460.0,6.319863291306838,13.345623952379697,3.495046732707588,24.79466779730748,27.310038513247687,-2.876329952892611
480.0,-3.7580440894913876,9.760198485495918,0.19829704724460995,-18.905776491047742,-10.516141367378872,30.513244172088527
500.0,0.020313213941868406,11.00014358113243,-0.3086133134820454,4.493926760648262,-2.2285915320867646,6.966394529490592
520.0,3.3821638008037835,8.578066054592645,0.82330914801091,12.459118496260075,21.033038175781563,-32.039854872332945
540.0,-5.377797754991512,6.154869994995656,-4.036012623571282,-22.990478386404224,-24.247774078061298,-13.671310984751365
560.0,5.752900683011605,15.994604017288973,4.119014319999767,29.133427647496433,20.3720515732314,24.99512621239697
580.0,-3.9470973920087804,6.34404214290642,1.162293837788807,-33.96097083843011,2.351628855684224,12.467629746517064
600.0,2.412054414585151,12.78924446910564,-3.975734796061297,37.424370830091505,-14.711615700691155,-24.939672054979617
620.0,-0.9694006666021666,3.8675686990320837,2.416261364407333,-31.17793090645379,28.538149222377566,-19.61151470961392
640.0,0.8963780770689862,14.548233751179158,-0.7518327412123098,22.30936656293756,-20.341219804086922,23.32615861377688
660.0,-1.2221202778884235,9.882656267326894,1.206332118211063,-10.34997261987817,2.3564524764822115,22.99781104412579
680.0,1.7984426187114166,7.789703433990727,1.1521320194565057,-3.5597072840830517,16.24531878299836,-16.04650392644298
700.0,-1.1933347273798942,9.74230693105255,-5.4148594377566015,13.763087089814958,-23.53752842541968,-24.08307538417989
720.0,-0.9649272948065003,7.779324806044353,3.76724982223157,-26.573106215584986,19.723566765103666,16.202303440986242
740.0,3.8678036944037597,16.301512604866115,1.7720126137075,30.418278865567,-2.374222598858245,27.44690035673862
760.0,-5.946754679211571,3.436872565712169,-3.225597498751375,-35.64986446829006,-18.44400475401322,-13.063518934399514
780.0,7.084441881705927,12.349394222258075,1.352417612914376,33.66366595001679,24.911324005692332,-28.13754868962365
800.0,-5.566176773415767,6.82014536665285,-2.3930331267105416,-25.024351661488204,-19.280157653110912,5.430572472555472
820.0,2.5317891392809755,14.416308199623131,2.8018105319657383,15.64790556114761,4.493110047484927,31.82721830116059
840.0,1.284693899556847,9.053871805868987,1.5367018543825666,-4.202783728278471,16.65365927420956,-5.194215217801085
860.0,-4.153680078893515,5.800936504884119,-5.6603727538959046,-10.070180152492185,-23.773177912423026,-30.306637053097326
880.0,5.64800203462464,12.97386467954317,3.2638879173757784,20.023397988593842,24.007854863038933,-3.797949070831985
900.0,-4.981281467509336,7.650017912461624,0.9323619965954222,-29.54613759839224,-4.580026876757531,26.969789283604143
920.0,3.0045147824267096,15.57642683431168,-1.1010517202295298,33.981007042734014,-11.748336038591107,9.546446899423234
940.0,-1.5859583497686351,2.6559609579802594,1.062592058777603,-33.48156755893555,24.484324866114935,-27.36264746209015
960.0,1.1341067496374901,13.491868498024623,-3.9588707505402443,31.032882434086776,-23.484684012530217,-11.409322099638393
980.0,-1.757484749533154,9.132088129196044,2.9267326100064626,-20.72885715280797,9.92373326663244,26.510617884857293
1000.0,2.4672911597937954,12.33983537346897,2.233748823587847,7.726122967108752,8.743693076169054,13.691219832653234
1020.0,-2.334179453209183,7.989095109399454,-5.060166259748561,2.626182389040429,-21.158751823790368,-26.516997506796372
1040.0,0.7742071403752507,5.937116365922279,1.9827907728065595,-17.576861409758052,21.62538181874331,-17.988534948904828
1060.0,1.670114721446661,15.362309591069925,0.03707991873381801,23.974934665744442,-7.583802188448578,21.67063817607363
1080.0,-5.159503676516646,7.058170528936943,0.6904833001643471,-34.291548354756245,-7.864942882633297,21.64885351570968
1100.0,7.185934165513716,13.24256128818176,1.9156636730270038,36.285422682311456,22.167012943373226,-18.92931072728183
1120.0,-7.179993887534048,2.88431469715887,-4.853893434441189,-31.164940028793804,-22.965691602664844,-24.90421993758322
1140.0,5.074072780900704,14.935889138230264,2.997663338670215,24.644867749736463,15.482860937765507,17.199800059470878
1160.0,-1.7051650885527008,9.956084102594,2.6148870315553774,-15.727553831791282,5.310751839183643,27.6441939806733
1180.0,-2.1967301401378667,9.289544761711591,-3.6458184949726014,-0.3307364081671573,-22.604984001873248,-14.608628798130884
1200.0,4.294821798234246,9.044599320493866,1.5797103201438476,9.675830869060077,28.471180456978082,-32.77050252336754
1220.0,-4.334344422473703,7.6603820335037796,-1.4808012494865659,-23.430789072657184,-10.831241003654506,10.238013399455696
1240.0,3.493142263396294,16.62391926527987,1.3962800154586201,29.491931127109847,-4.367958224918656,29.275959836218004
1260.0,-1.8038006946257854,4.5164686323234875,2.1937517432060734,-31.530907906041428,15.972246978491148,-5.976591903967995
1280.0,1.4646555926100946,12.146319844779498,-4.989221323472603,31.93323554092195,-27.362640035966187,-29.43241625452632
1300.0,-1.3847569784724953,5.563257745112412,2.1878169456003556,-28.223309707464747,22.613105589808715,3.8485352713325685
1320.0,2.6371739669419583,15.502692885405326,1.7008911235430233,18.374900883899212,3.067836461268987,30.049178791369314
1340.0,-2.671341840861901,8.890625512781734,-2.0571075511375607,-11.872980204500603,-20.789728028619347,1.2405362170573926
1360.0,2.205740603708241,6.931086845625824,1.5849252354426364,-3.553298889725328,23.27413698967594,-25.481610148412447
1380.0,-0.3893310290433924,11.367859972180849,-3.4263156464711813,17.992349355980124,-17.644972297734274,-3.2655856228752826
1400.0,-3.224985053195404,8.338607477051657,1.9620009788568578,-25.957913788415908,4.1946356961837825,26.258172652628588
1420.0,6.103158284197663,15.455955546939999,3.4527348411853627,35.825502513487805,14.841321574503985,13.144255817920417
1440.0,-7.166994993293388,2.2190608569950347,-4.97240976979789,-33.83316004203914,-28.85947670562074,-25.27422839950243
1460.0,6.503968081597959,13.451033982869491,1.7414700397090133,32.75123957741705,22.71697991061157,-15.255736856320892
1480.0,-3.8474582336193923,8.303775208951235,1.077939934266327,-26.089199783749315,-7.7792108827876785,23.76328862070979
1500.0,0.2112846409591106,13.295269680545873,-0.3708957662465652,15.687933525822665,-11.873490024979452,18.543046384835787
1520.0,2.538373550649267,7.903796055622351,1.7387030736145008,-2.769948691565676,23.31574012922297,-21.935353957548575
1540.0,-4.025656898699293,6.340073584049396,-4.5035842259338175,-12.378766283227215,-18.74586732272049,-20.944630742860998
1560.0,3.5875520358886113,14.29582353157313,1.8737116407498704,24.880282675724466,5.904488684167256,18.339584493380087
1580.0,-2.5041960738034854,7.486060515641063,2.9480905191558087,-26.50785347853359,12.737282031848773,23.9397113025716
1600.0,1.6645075428307623,13.788210078869069,-4.016642511938386,35.04479409884062,-22.705775024290688,-15.709855432361705
1620.0,-1.3530541826593074,2.3249055456913967,1.4600028236778815,-32.68756878960128,20.628423077872675,-27.52770554203216
1640.0,2.5935727030185416,14.563210260796684,-0.3679520430601147,32.59976054656275,-7.514434614579615,10.509209793070742
1660.0,-3.7023587089391956,9.422374242360311,0.555196552043779,-21.54474280665275,-11.417321376783406,26.79429322887852
1680.0,3.4251143457643973,9.902598689600843,2.983463332928722,4.707831567739877,22.487466805646513,-7.503996570148399
1700.0,-2.170880390011463,8.267735677610457,-5.343343834101844,6.08779195841665,-21.08001130047275,-28.66903699738993
1720.0,-1.0469165239457856,7.576294242985335,1.755675956278595,-17.647124997173968,10.363193724517094,-0.5343806565374356
1740.0,4.319498457735706,16.517012296097178,3.0823358672932035,25.725858578348827,8.575823993024251,28.987905475645945
1760.0,-7.227388237737312,5.382847322822553,-3.169476650490321,-36.72561208537211,-21.476530138161422,-0.8609658953947998
1780.0,7.448546182110958,12.484079790826986,1.3308484712853481,36.070931034511005,27.64212580923137,-29.580473826099638
1800.0,-5.434598743548695,4.604999153237036,-2.351478434764468,-26.34038807921607,-12.812483685681132,-6.257063170652121
1820.0,2.206076810688368,15.435948143203236,1.2242438525884898,19.931776775783295,-1.2878849107694705,27.81374135202067
1840.0,0.6860510085673261,8.849997702680684,3.459413482624904,-15.738993298748033,19.330211868972928,10.255978005596551
1860.0,-2.9671904250521353,7.371584390515224,-5.036783641137598,2.566632825426545,-26.58691550940588,-26.49365689966136
1880.0,3.29298062909642,10.285645298769118,1.1365582427222338,12.26075617438702,14.757351877928912,-14.09901998220399
1900.0,-2.3159502026532217,8.630625715958796,2.3079723699537382,-27.554382044573295,-0.1378426098129002,28.31240538511205
1920.0,1.6394605894244416,15.828961005704299,-1.0661210979206126,29.84668025348689,-20.77106598273711,16.671440973337273
1940.0,-1.4625167632060454,3.1594323194781886,1.9927291088124355,-35.80534254979372,26.833352312048692,-21.22177393997389
1960.0,2.7173390568351783,12.673583314214305,-3.682440648895212,35.416864050385016,-16.203329498555743,-20.23294269172186
1980.0,-3.63886389772103,7.862331804462485,1.0322407114681327,-28.78122599635672,0.8864150809590188,19.26001090068136
2000.0,4.681175031767298,14.50026044769901,4.2006071474305475,16.82356975481167,16.927910853344336,24.91667116210661
2020.0,-3.6335284527389144,7.783012719409583,-4.345852301822807,-8.125010035399535,-22.153920941462804,-14.445869018083453
2040.0,1.430343482304883,6.848820556481968,0.9473712796836554,-5.837695522161253,18.617580428571745,-23.985885250189668
2060.0,2.32717169172654,13.25383162388491,0.533505668982218,19.239295907688824,-5.788099113460789,15.65632631292849
2080.0,-5.889043325109705,8.065496599696433,-0.3006014109699567,-28.061692364445594,-15.81443620910856,22.90472198451038
2100.0,7.27272376490893,14.104828122058507,2.8356935656209483,29.815143812391323,24.955686044658677,-6.037886243714361
2120.0,-6.979898617872645,2.8162478030444786,-4.564473111419711,-37.193413907955275,-20.401331646834898,-27.132537799141456
2140.0,4.735425384450253,14.582973378399426,0.6820535254878786,32.70120564892837,3.352850184989564,1.7933692533458008
2160.0,-1.3166008471172508,8.674422697316064,3.8795403308282363,-27.834182078333992,13.923780195755532,29.14849104765364
2180.0,-1.5075590114950435,11.72039401245201,-2.958483709976754,17.298303669532608,-20.52891947761696,1.6477947036287577
2200.0,2.679055723386376,7.212600946448215,1.1624361720907985,1.6453884341481766,20.637030697315218,-30.938306104769076
2220.0,-2.8179235019182847,7.606664219931523,-0.9975650945323679,-10.974423542733916,-6.692109269070931,-3.8914609257208936
2240.0,1.6003035479916972,15.627210926101133,0.35137101421525374,23.684898891026798,-13.580967024123098,29.9377009293806
2260.0,-1.3054939723121772,5.930193792836068,3.897034476207383,-30.653804848848193,24.18118955071665,12.984956250933774
2280.0,1.3879967105378956,12.406142419425024,-4.610775228051449,31.880004852861177,-25.83065817378062,-27.476110109208605
2300.0,-3.2586463638131664,3.687077655290164,0.23351902312593192,-29.831360305035272,6.173453732589765,-15.204169943458682
2320.0,4.60500130868504,15.871274499788585,3.191241229892536,27.39557272081214,8.775567644486296,24.64247908559351
2340.0,-4.84251480283537,9.056285198766544,-2.0091078927525396,-17.55518702225852,-24.686705379518468,20.772167149865215
2360.0,3.500064833795163,8.861570686380208,1.7587138817149421,1.0519087439013424,24.696426985869184,-24.964821926075864
2380.0,-0.3142594512551591,9.113498170640703,-3.249737740006105,7.746820200764842,-11.127805297778442,-20.668344330633516
2400.0,-3.5951206567537137,8.451760665921825,0.43804223137953685,-18.873584475512455,-8.55548890564415,21.41324957088552
2420.0,6.347915185855145,15.851768067059052,4.3457480411746285,29.377151374091547,26.210895388700685,21.778309007459924
2440.0,-7.089201838018883,3.6193199727862155,-4.4152117505720625,-32.950485825674285,-27.795110962260498,-15.114021911558197
2460.0,6.090501887554857,12.584435269625299,0.015491157808946374,34.58609138723825,14.146430151634686,-27.898398464485762
2480.0,-3.221563738158769,6.602154286446354,1.4564064755658828,-35.102486741008676,10.15584051541219,17.008130322493813
2500.0,0.559221100467075,15.310780304190963,-1.0359794910469138,21.420041517827688,-22.110389551101324,29.02944339338648
2520.0,1.297460484318064,7.470524121112364,3.0294556812841136,-9.73786672683712,23.980052265358964,-8.463116330529958
2540.0,-1.8531518567839504,7.236205656396067,-4.142398183818361,-3.074268464985613,-14.169335356094503,-28.12836023880887
2560.0,1.2265432816452448,12.323564318594205,0.15521684305348354,14.032200606791424,-1.4487761222635234,5.283057002907384
2580.0,-1.188833988582547,8.381240286460804,5.128465255995514,-26.43794500491947,17.171459966766875,34.383895493116526
2600.0,0.8037917671890049,14.52891863227732,-3.8539239883031313,32.26994807976983,-23.33883279857867,4.161833786237032
2620.0,-2.5269903290949283,2.997318025580968,0.5700623526350685,-33.22296316485664,16.210547494600632,-29.500776490508056
2640.0,4.091939556768938,14.155736580681632,-0.3981212754205319,30.670209080891784,1.1821963904561545,-3.6497517026273276
2660.0,-5.918887107207559,8.534054724288378,-0.39218209282894056,-25.85647948080118,-18.31125859040588,27.03304489538521
2680.0,4.765883614534529,13.02673848599397,3.5395335805322836,10.762559871532227,23.627255477711216,9.88626825535545
2700.0,-3.0247090475373977,6.610008054344008,-4.54425645424767,-8.880481794431443,-19.141878199115418,-25.75271854894949
2720.0,-0.5916063003529324,7.628370299515846,-0.8421446613111052,-7.275832937883569,3.061867798411579,-11.609264084299861
2740.0,4.505917697441122,15.004483685334117,4.101917323888844,21.007261439388646,17.079636826890404,26.08789343974938
2760.0,-6.8299551697951895,7.068503231217565,-2.739976648170991,-26.08509329236475,-23.65187405605901,14.743629129794169
2780.0,6.682014609151976,12.653420866031041,0.9605261771251923,33.75997403775079,21.362036119975297,-22.237215366277496
2800.0,-4.683276156686914,3.6703534218942258,-2.193232369056739,-34.58469021513201,-4.095336239867782,-21.039964580060676
2820.0,1.9823125811507247,15.938456980954253,-0.34816469257774907,30.48967655614147,-15.210366355181446,23.58413112727533
2840.0,0.34893936212863114,8.577199177261617,4.810945428530189,-18.58065137480192,26.33379329416035,21.95804082825297
2860.0,-1.2067916955220261,9.65194143127597,-4.3972976679360345,9.053213445550528,-20.853181478002004,-19.66601660469404
2880.0,1.1657988912757442,8.425276302260176,-0.9710358856401763,6.958745459765335,6.71383175679396,-29.533534051997087
2900.0,-0.7804200146379574,8.169226184897264,2.710150739206303,-14.032887391694475,15.024451995056095,14.314691013712482
2920.0,0.6995335197312746,15.3999753177263,-1.2162248331662036,31.098625400695173,-23.720954630949983,28.706917417709896
2940.0,-1.7431488273218023,4.553362561646336,2.431815946009308,-34.04034399211802,19.137644532569254,-7.471628140421711
2960.0,3.264299462813966,12.495863902443407,-2.8113542580150064,35.920566295566466,-9.28874279871935,-31.099167029006555
2980.0,-5.25773337319008,5.63472518965316,-1.0193756149198074,-34.50921160854926,-10.19162014012104,2.718830132160913
3000.0,6.186185735170356,16.38730109105717,5.3037977276473045,23.02287205326382,26.961258258890748,26.168975085632198
3020.0,-4.8489492719529705,7.678190113801048,-3.2711189229594013,-16.701917172630424,-23.378510961483496,2.197541010281136
3040.0,1.7790562305743434,7.422959399338592,-0.6809553957562551,2.739427338644315,8.751025887788616,-31.473818911614156
3060.0,2.0991666485627856,10.818266329121592,0.8463303896236676,10.658498648660752,8.48245076103509,-1.8853490525200876
3080.0,-5.806909327997273,9.215263935763724,-0.900412594537182,-18.067969518690532,-21.58695280827658,28.2305233227888
3100.0,7.15383038369317,14.861835480094577,3.57028061046934,33.368798045089974,23.292285562966793,4.319154976791282
3120.0,-6.1867266485086745,2.6921764454894848,-3.6872817708743644,-33.447856107430134,-12.804192991155578,-28.190624176814786
3140.0,3.6898310909251855,13.820542780250982,-1.367595600521641,32.93942439765324,-6.718091608056663,-11.047780073842755
3160.0,-1.4406939157267953,7.944817189094503,4.668872702421183,-29.90093125630901,20.33288505095896,26.275916752526914
3180.0,-0.5869490243561835,13.722233760771465,-2.357268697034137,19.4725209734223,-24.81089493750267,13.583195797475549
3200.0,0.6995973697684207,6.16997206454591,0.5697719552991415,-7.241285698033155,15.741454158711727,-25.61996842440605
3220.0,0.029677216572859377,7.5756241862422495,-0.5489914776643281,-1.8277176201347833,3.6303657445015864,-16.017264233642205
3240.0,-0.1619576536800052,13.856660941541358,-1.240496198681072,14.509438742059265,-20.244175297262178,23.864540474236613
3260.0,-0.21830408095505477,7.692347864249138,4.878706974172426,-27.343811223211034,24.299883456158213,22.478652259087287
3280.0,2.148416998909071,13.016290599282595,-3.744797223963101,33.09145362579835,-17.05275390051831,-17.008055753063605
3300.0,-4.530303601147646,2.596308986118751,-1.752327367397285,-34.620985189530685,-1.3311554139490331,-25.946886150800886
3320.0,6.321749378460383,15.966369296874394,3.463697385792775,30.609987802707384,19.618761063804325,14.98056597442434
3340.0,-6.025460161331776,8.803505237830375,-2.040707734893146,-25.455675352423658,-28.596184300506096,24.234078623061727
3360.0,3.9085680866485166,10.854806144443058,1.6146158402176451,16.07890407623192,19.245004211062806,-12.92657732806762
3380.0,-0.6579447300098653,7.216115055766462,-2.034187077945982,-2.69064042230793,-4.55276498610805,-25.86281228330313
3400.0,-3.439696488515915,8.76147878740185,-0.9856979192819559,-11.927306086697612,-14.59493363821285,8.043016453955108
3420.0,6.107139743942189,15.346135598546725,5.105646685830173,24.178599240861846,23.524595729071144,28.489346142622303
3440.0,-5.972183690931659,5.170640502172352,-3.161364846339889,-31.766657381394232,-20.301499944805972,-2.9059468657768024
3460.0,5.072830354277672,12.33857230897938,-1.365882763007525,36.54424148473203,3.718142319487999,-28.382214054867944
3480.0,-2.770967778755265,4.448956718448347,1.4488486406423497,-37.02252662323187,13.99345343194825,1.014289709099039
3500.0,0.8578385244947536,16.34724690519076,-1.5227659786261782,29.399410241342554,-26.2482009617516,30.40832255404953
3520.0,-0.15766562360573835,7.2912057420427026,3.5775278424015537,-20.903858334498295,22.90098210828293,3.961765691313736
3540.0,0.11764261811851984,8.536693980535144,-3.0654894520601146,7.717953949027596,-9.733963060314379,-27.03941662714494
3560.0,-0.802956763354188,10.014551504475019,-2.370688377751441,0.19839511855071024,-12.152350136245047,-6.486111381565397
3580.0,0.34552126629922003,9.80038012683731,5.166052906293508,-17.744074781544995,22.80897677233314,28.302200763121654
3600.0,0.6993032527497416,15.012583887102473,-2.1932869464743203,26.241239389442256,-19.81027285449956,12.087285271861962
3620.0,-3.5245557803884098,2.9314226213532457,-0.791656621030493,-31.001959890031294,10.90245193381567,-26.512549410804194
3640.0,5.909136039715392,13.331157060122301,0.37939638309434387,40.323872900408034,10.421693927691198,-14.998979231960234
3660.0,-6.598070477971248,7.11524656892092,-1.6075503348631197,-35.038880918095835,-25.95692987386564,24.570307483116434
3680.0,5.839255971953037,14.837953400861759,4.965821678788494,24.91502080666531,22.64540104608297,18.566232682992865
3700.0,-3.115374822139448,5.8126596772190835,-2.987948977193969,-15.492385134249155,-13.864826182083158,-18.43295836411458
3720.0,-0.8470277421728181,7.920392566023277,-2.5967200958572048,-0.3483679434356878,-8.769440946023986,-25.457744702692086
3740.0,4.170345830481576,13.056198402327357,4.4126036998102,11.50986301688231,19.340914646808024,14.957497703468812
3760.0,-5.800489313545734,8.682715336561753,-1.7227500213827582,-24.652421933731176,-24.85525847485375,29.76604288566071
3780.0,5.53084069589305,13.281908355146522,0.6423921101089676,32.31113325255051,13.800449464774442,-13.29033951018207
3800.0,-3.8972359188302033,2.7651235323748518,-0.9192507255080558,-34.09572361532695,4.42987481338859,-29.968251889214606
3820.0,1.6702486300779913,15.470049714644148,-2.6745968730287677,33.58742150562309,-18.41950269137284,12.106547916697458
3840.0,-0.5716834554812182,8.390934353007236,5.143503855282983,-31.546662201601738,25.592671258042763,25.664848717852593
3860.0,0.48729240643712035,12.104743593309168,-2.262038649987674,17.977697586194044,-14.49046766070016,-1.704716613618673
3880.0,-0.9150229903759617,6.411494974064476,-2.6773350585516353,-6.375720412302766,-4.509152432782249,-30.950150954105375
3900.0,1.5890933756964811,9.244571725366166,2.7130154640989135,-7.818314702660149,17.965428895167992,-0.1311348385327017
3920.0,-0.7488227738400274,15.006297085709722,-1.9390079263368418,19.50636538345149,-25.82297396965311,29.907673938651996
3940.0,-1.257537494631441,6.200805535035896,2.6010056450305887,-31.541696629473705,19.153785741737792,4.875615836998013
3960.0,4.528058257728204,12.235319367987119,-1.5794213566137518,36.82739386658009,1.5121486263135457,-27.88996417219467
3980.0,-6.6091112101229275,4.078050835545074,-3.2034109673151927,-34.1312147262334,-16.764615552893915,-6.959152782904927
4000.0,6.784566082920632,16.571568199128354,5.025945892203402,32.010571436629355,23.297686007508723,30.976203314589863
4020.0,-5.1928717101114525,7.105175545547412,-1.7137753410724186,-24.05259980257706,-13.494752673130609,13.289029805653966
4040.0,1.7549103675658666,9.288202672273842,-1.4378582792855714,7.985260051427634,1.4100568698728788,-27.80642665729259
4060.0,1.854236460584439,8.312992824080128,1.4457302885712,0.698450312011379,17.467759999073152,-15.683236302924659
4080.0,-4.816812874447205,10.135942224537397,-1.7359419807287693,-13.261634981500146,-25.524768089077448,23.472171054281812
4100.0,5.518979891192803,14.845283404834067,4.158505925096927,25.475412325722196,23.31228497823961,17.729305550572427
4120.0,-4.576277828106616,3.78922787611705,-2.1188478771689767,-33.657884226657856,-2.482524866211066,-22.8878482262981
4140.0,2.938056033823269,13.01346479359415,-3.3995752992179473,36.160667723455724,-14.931223931173037,-25.39735128037781
4160.0,-1.1323976508268132,6.488418553059189,4.3827385334250035,-34.29804189558054,24.195057608146094,15.647219603297598
4180.0,1.3216225059151328,15.373258768564693,-1.271492928931893,28.06299368772626,-25.387722070425475,24.80751460245187
4200.0,-1.616153368736851,6.150398220474569,0.1860392972187876,-17.736427538023296,6.557816161593555,-14.766974237539772
4220.0,2.2076446004137487,8.426736342905448,0.062052536353972954,7.138338001803505,8.41506804337929,-27.971630567099915
4240.0,-2.2859636118997155,11.447106003335081,-2.6471849927470523,8.531864864558116,-21.601473641325356,12.238092029730844
4260.0,0.19751164226592605,9.259262619959053,4.958869080798463,-22.577539356236507,21.266648445045707,30.03809096747707
4280.0,2.4570473534504194,13.370179108541537,-1.8372768519511404,27.581025757498303,-4.421262914630282,-3.3208493114072604
4300.0,-5.949012732553711,2.484966154171537,-3.432128784286347,-30.106470229211357,-9.341080582909438,-32.1629699458131
4320.0,7.132836463842049,14.81739460970744,3.316684410241142,33.885611058716314,24.225771096424563,0.9804502055422764
4340.0,-6.704863502422188,7.67430036997643,-1.104244948703025,-31.76452796404546,-20.54349689240751,30.105215338381083
4360.0,4.120188336071834,13.507905929321776,1.4955459220347878,22.372453957280573,11.970685163900312,0.6680388382487061
4380.0,-0.7564395611282597,5.906083816060395,-0.9266634896267879,-8.756000332663735,9.939546278479183,-28.77859717029676
4400.0,-2.609937752543948,8.90454576449219,-3.8812285234386947,-3.8403702306914305,-21.109212559178655,-3.7266919898892508
4420.0,4.582571970176654,14.512363565691688,5.276851501253176,14.853622295298127,25.926685891572514,26.51002639232991
4440.0,-4.934876685592655,7.0955258208416305,-1.189545774269279,-23.93617362791161,-16.981678223419863,9.678925561825464
4460.0,3.399636499859487,12.263783944407239,-2.9059271578885593,32.644632541532204,-7.5304289489518474,-29.2408820540604
4480.0,-1.975091724789099,3.680409893750901,2.028564700551802,-33.75213957153321,17.92184180751849,-14.08418132500443
4500.0,1.0683584175591314,16.679502844830886,-1.943473846752363,36.146035880520124,-26.397576790513792,28.812704672307106
4520.0,-1.8279281809112244,7.399073286320539,3.1754368439104548,-29.19002923690589,19.023676981537584,17.581557154335762
4540.0,2.481342761305022,10.353452275271373,-1.107477652928622,15.436450490869705,3.1591933380015664,-23.992027115544662
4560.0,-3.120473112937878,7.511656133678213,-4.466473866779594,-7.7750352639337645,-20.576498765609823,-23.78787799313126
4580.0,2.221431689270454,10.241606261684291,4.309978207656547,-6.994641872402839,27.224029020647293,19.828199924268958
4600.0,0.7384252215206185,14.660608665225556,-0.7881745105688138,21.3471087303218,-16.5132144130919,23.34532844474959
4620.0,-3.7567534531039892,4.464857122474638,-1.2655759912674562,-28.859683653765057,-0.19783391463189004,-16.488748300880207
4640.0,6.342599976815179,12.349431467521752,0.9489906753942641,33.31961738524418,18.235563231029342,-23.968856720260465
4660.0,-7.563970649117028,5.726622709381227,-2.6808652287274146,-32.73608692154082,-25.00408653227558,11.101465591841428
4680.0,5.98911888838463,16.610931564342863,4.6185160060130315,30.830944028052,18.15574130292205,28.127199990354555
4700.0,-3.041550009718992,5.706351912327187,-0.7270212195177465,-23.523974835845593,-2.315518022535112,-6.910017065481981
4720.0,-0.5572515978098906,8.996950935218754,-4.506238659718635,10.314574286035828,-15.969762906448493,-28.25183357797132
4740.0,2.9675167625327012,10.335002090276882,3.3901072589001915,4.604054358422228,20.20536073650757,9.45864357067056
4760.0,-4.292767067210056,10.251788653388438,-0.9107840680331564,-16.06984350828926,-22.628292917475388,26.963830654438638
4780.0,3.47431665086242,13.599670098572037,0.5839028204147807,24.350620930624228,4.463473671383305,2.1331846758650714
4800.0,-2.527552444978369,2.9480787824285746,-0.07679840427050151,-33.600301599777055,18.71847227847108,-28.335076229415264
4820.0,1.347901181833672,14.688155511770075,-3.5388189385730513,28.87714652932527,-22.984171171408065,-6.065259363979765
4840.0,-1.5711632212402888,7.842100797759049,4.840461542269033,-30.397605781900108,21.850499786468685,31.513483854802473
4860.0,2.4918772504100897,14.269642231332249,-0.26511097173314496,21.786107420146646,-4.734822799296419,11.286221702883012
4880.0,-3.599032208252053,4.982572767542579,-3.467974203875027,-16.523991483416065,-12.259951226845274,-27.70569479433824
4900.0,3.396575274272071,8.998914128424959,2.2019966500590544,2.712350940142943,22.249374311776563,-11.486936176656638
4920.0,-1.5293352040732966,13.432752915170417,-1.530753129760739,13.132075746690377,-21.756071500652414,28.765375524503796
4940.0,-1.6203598348979125,8.326451054239369,2.275184870791218,-23.032099352108503,10.593344323163754,16.950804413739167
4960.0,4.960051846828115,12.243389049051444,0.103865717101264,27.275622350482166,13.753317140287368,-24.635954879636397
4980.0,-7.399917505534311,2.625857742956352,-4.635420117757963,-30.50240495439277,-18.4660188802454,-23.329256691527657
5000.0,7.053238199727977,16.212290823762036,4.702014599470065,36.00343374292225,25.577059555151415,20.23400821923179
5020.0,-4.817322082120835,7.511373108139383,0.16698633686695996,-30.821192512704066,-12.349649236556052,25.16718118948834
5040.0,2.0542489787860765,11.299342143864061,-2.435303328591798,18.846227287707872,-9.302043502614803,-14.665233557318905
5060.0,1.4579979865512334,6.230680731893013,1.1135940426387165,-6.3854132913357,23.777146232156117,-20.884425701329945
5080.0,-3.412884627391301,10.602215978281563,-2.8724404616499637,-0.8479744306205514,-23.99601212001641,17.004398902438542
5100.0,3.4081758079374707,14.631142405075334,3.635250339135641,17.306407295979113,12.138871963039476,28.041504368682006
5120.0,-2.3448943718480493,4.761526884245597,0.2595707804659556,-27.565615068607524,7.86614214896816,-6.654753657600542
5140.0,1.6398721186929324,12.226718616179292,-5.036394890492949,35.65985419500348,-19.27787287285048,-28.557647233212045
5160.0,-1.9286567288097194,5.236058995393312,3.463776299178675,-35.942655591456436,25.888616605039832,3.454569807779531
5180.0,2.295819327608933,17.091646875751355,0.06223016092386599,33.95145253320063,-15.366279653473358,27.12377007834711
5200.0,-3.874329142210469,6.270326869763393,-0.32970885812799966,-25.68305043226724,-4.580202292092713,1.4085743477604467
5220.0,4.035248762912081,9.660760570852524,0.7155162080776905,12.94033198280211,21.89411283705666,-30.713872465240538
5240.0,-3.4126685506378203,8.895928006174788,-3.618130922642926,-4.367058993574897,-23.248351982984794,-6.66360812946111
5260.0,0.6233015485166327,10.74952180318698,3.9550202488733093,-12.150941545265692,13.467952770320824,30.096897645234094
5280.0,2.6880008025949906,13.627068945376008,0.43216905143926393,21.583734694438274,-2.395272980858796,9.481652189883055
5300.0,-6.064107095072431,3.1897401809712247,-4.323406085100033,-30.32947006573834,-20.042176962314272,-30.227374574046287
5320.0,7.468807809612032,13.48509323898733,2.415361565479431,34.59629827131041,22.45689792009957,-9.986945451317025
5340.0,-6.86475038789629,7.276555062579744,-0.839711180771167,-35.92843575292227,-18.02037939265745,24.851820913147183
5360.0,4.100308656481664,15.304838438896462,1.232342809611984,28.28226866896777,-2.381872856679684,12.671313359559313
5380.0,-0.3014855742498839,4.819291046430471,0.8897962195706222,-21.658682410748895,15.587638975401928,-21.2563757086496
5400.0,-1.9395823025409606,9.707496379060473,-4.791020365171239,10.701052752549025,-26.590677885970663,-17.964098559114262
5420.0,3.0771621951937207,12.23127893525678,4.334826509255638,3.411245831733588,20.038521752334532,21.87663492602653
5440.0,-2.554620294371698,9.326653481398177,0.8785380073977351,-18.129656169506355,0.5047243729925817,20.090322453691705
5460.0,1.6581319577027291,12.101314926330772,-2.9426861727308955,26.616441580392436,-12.054295387933575,-17.399702160222866
5480.0,-1.4691932746208536,3.138596200139058,1.514637978668972,-31.518607799410997,22.47789914952942,-22.761422187506014
5500.0,1.8995929838238559,16.10017480305659,-2.010586141989496,35.44278466640197,-18.590980553526393,8.11278128529096
5520.0,-3.297407727062228,7.635616455143624,2.5654739073440336,-30.955112605912127,6.960279399739821,28.09906470765371
5540.0,4.580158566419186,12.463773676076755,0.9519221858687938,24.269699921679322,14.53414512074826,-13.432274229883806
5560.0,-4.544136732321178,5.19650067079087,-5.353798387003372,-12.107290666895468,-24.152396144627374,-28.752553067351155
5580.0,2.9687515958512942,10.485650714873072,3.5544214537695358,3.0417880834343114,22.16859023752623,6.512972045665727
5600.0,0.4535250634288781,13.997870289837108,0.8933405364175528,12.42145631098752,-10.220395121790512,30.67842530650816
5620.0,-3.768931748435971,6.394334237562675,-1.8018721503527038,-24.369626394766644,-11.989138578670774,-4.011262745290426
5640.0,6.479219359030903,11.39428401098048,0.9673412793952123,30.1883666860471,22.399563963786274,-31.034943044741997
5660.0,-7.067904899123526,4.725707056336647,-3.2447116694043454,-34.278608766574365,-20.88161483116061,-3.2032842278240095
5680.0,5.692259244789362,17.27495723237261,3.320139884850697,35.1839474893084,11.962539990720554,27.42882296056592
5700.0,-2.5762574333620356,6.456248618896945,1.351710315451976,-29.089581131775418,12.714052844039246,6.532228737717099
5720.0,-0.3037627184851134,10.442818724692568,-5.133893786081343,21.508174024539077,-23.638822622886874,-29.875025714122224
5740.0,2.084845666260702,7.894686781741894,2.4957931820192862,-7.972455795246387,27.907416979340216,-10.245659219918386
5760.0,-2.1803515697194227,11.413653236785198,-0.18080211576081523,-4.411181913896961,-9.187293950525111,28.747666622447166
5780.0,1.4717147085052487,13.49336477390096,0.07603328816382351,16.447731010905997,-8.68967284105258,12.058144106250692
5800.0,-0.7415578843735696,4.0005748753699395,1.4036901897484209,-28.305776718149815,22.737330081434592,-26.636210546930407
5820.0,1.247268414548006,13.083107900744329,-4.596882925107375,31.784065876298797,-25.602484998537584,-18.199204054297994
5840.0,-2.579020484390268,6.760203839841424,3.1818702319724985,-30.476278053568766,14.371508428408774,22.40702551158834
5860.0,4.006008297220925,16.171612142969355,1.9500939739350458,29.50003800046661,4.555656179598303,21.493492233322687
5880.0,-5.411928400426578,4.727337905773187,-4.242757790556628,-23.325509584127982,-21.451492420908608,-18.982862053690436
5900.0,4.424912073193281,9.848658661310417,2.0158006684161762,12.339784415996203,28.012560470974275,-21.83124636463137
5920.0,-1.80011486410205,11.082144498780893,-1.4868267498513223,-2.1270652114092194,-16.81341320969171,17.74371068420601
5940.0,-1.8774210705733885,10.47657883486186,1.6162289060856565,-13.334299201912987,-0.24107095826075642,24.787977492147856
5960.0,5.4440836197961,11.748477373213507,1.8008897550453826,24.915485069809954,16.663215792319548,-13.431231828136525
5980.0,-6.8538733351752485,2.7969753491455944,-5.6799689863491825,-30.4643694066483,-26.067072551521747,-24.97474837352326
6000.0,6.540513032781513,15.582390042678096,3.1444387955571105,35.132886616724505,21.679651718187603,4.409201483741858
6020.0,-4.336769608849227,7.4514743875854075,1.7558267130169216,-30.771910546603273,-1.8161858873937806,30.379035342297826
6040.0,1.6082050448152507,13.171284046051543,-2.3624667858382127,29.010827357260563,-15.861773356157961,-3.3328335347011326
6060.0,0.43144764558215143,5.020587277718205,1.3050572850361282,-18.409312391217416,21.587955323617077,-29.207904039040706
6080.0,-1.54570310091272,10.581087937737058,-3.018513800060981,4.4079842180596955,-19.349865717919375,-3.5084058484685556
6100.0,1.2396941950728855,13.411155320439745,2.587939812336111,6.326048582568541,2.245462688066185,29.039664544067602
6120.0,-0.7944473608370068,7.2307585568702315,2.4425060406763435,-19.533700265775217,14.343281836214043,4.379235659593185
6140.0,0.5341894820371628,11.223950235950364,-5.266448700694642,27.744885366322354,-24.315795820029084,-27.852452118261716
6160.0,-1.9147969684387305,4.105737806963406,2.594181298246364,-37.03509337828422,17.770851111973126,-4.483853288324598
6180.0,3.9118284845758393,17.35446283993174,1.3807597816816788,32.97592329612979,-3.499543955808376,27.200458664334146
6200.0,-5.316625048624688,6.878307734498213,-0.5605136154049044,-27.62804701072592,-13.828161136217759,10.456159884108239
6220.0,5.791614628717092,11.15726235545477,2.1402718509544325,22.391604710844685,23.803522434308547,-26.43782749270578
6240.0,-4.085574656680776,6.627618473253266,-4.186920458054873,-9.539358207321856,-23.37820939163874,-15.850383868060616
6260.0,1.0186036105880805,11.73739611528895,2.550452492564447,-3.1833833160474834,7.412202885831325,20.364458346048956
6280.0,2.7192172353656447,13.520544619210822,3.2134876575160587,13.889509503668284,9.142988429049712,19.207051378843886
6300.0,-5.8432197900999885,4.478214243043012,-4.7916352848884705,-26.087920292306897,-23.276225861555417,-18.93084612382894
6320.0,6.745282807490814,12.722046827895408,1.7930838026392097,29.893067423316364,26.17398974130194,-21.928846383750958
6340.0,-5.999982961260946,6.361352588875496,0.0006982160968031503,-34.43470502902945,-10.668889163330817,14.327317653977733
6360.0,3.1133527113004096,16.75897174113372,0.4858171562201365,32.5304926675775,-10.24335227631135,27.81404350392252
6380.0,-0.4792360310677186,4.8713310971414865,2.406077357417295,-24.456276486658467,22.395464343313016,-9.200982333632714
6400.0,-0.4873467585657273,9.937565103953116,-4.996918109271774,15.752817978913193,-25.65984163768431,-26.07539271747303
6420.0,0.5362849122745774,9.502806000671423,2.362464697422702,-6.063268218809629,11.65099827084827,11.186649524757394
6440.0,-0.12783929855236278,10.871990834983583,2.733374541963931,-7.236805900742957,11.035911487312763,28.21405326243729
6460.0,0.1031026911888619,12.308427898268532,-3.334982316658715,18.285512772043585,-20.934208186982666,-3.2980773236164613
6480.0,-0.4714275523083293,2.923211377610368,1.3403673303889505,-28.107299620870304,22.266372158238166,-32.357632761934376
6500.0,3.095160697233946,14.548159866350518,-1.9624857857232878,34.502386855753365,-12.391220482856806,0.5144639734856722
6520.0,-4.732221339549097,7.574129016646349,1.6133174018650385,-32.86956183157408,-3.453846605130109,33.1837336624272
6540.0,6.3363952665473136,13.995976386148724,2.673023898470278,30.328905433347664,17.871605360142247,4.769866945285905
6560.0,-5.65509407767372,4.3751751363938665,-5.45224545288338,-20.609813450434856,-24.066435362087695,-27.96037622782032
6580.0,3.2184307336984874,10.622683561396137,1.8770880353808976,12.050271718200388,16.951224936959115,-7.358798539907267
6600.0,0.42396112619273674,12.292889791699835,2.1857157520752275,3.856003204407584,4.2682664330047695,29.07966403984017
6620.0,-4.006657676121028,8.926887328872718,-1.8423733501692419,-14.077960945193611,-14.803193254341133,11.972922496260006
6640.0,6.225552629423868,11.390144730690386,1.609523880602889,24.078805329544227,25.872814194418993,-22.450186972614787
6660.0,-6.021128023549931,3.9045096864142312,-3.3852945047273963,-29.955376633103395,-19.34918435109377,-12.39891316049839
6680.0,4.4905617653266745,16.606699831716085,1.659761121024536,36.31665541544469,-1.333125867181166,22.80349519622266
6700.0,-2.3501236077167524,6.797401541640689,3.510541600251031,-32.11956317879005,20.64460168885776,16.894644776036753
6720.0,0.5179148000503058,12.183541338496585,-4.768348361256078,24.453443797069227,-29.43994419337116,-19.522683966143443
6740.0,0.5388142208090023,5.649476204983067,1.2830158875064965,-15.577756889525247,20.313254019456966,-22.94359341634118
6760.0,-0.2289995499627695,11.862598989761972,1.0990812964492653,3.3188169766230478,-2.1039910759702796,15.553537054649853
6780.0,-0.8671071139155705,13.069985491517206,-0.4383942123868011,7.870033191001358,-17.211357749979555,24.320373323376735
6800.0,0.34856482934952737,5.701890960867111,2.5977555879441385,-21.670068356997195,21.722735785597372,-11.562123949968061
6820.0,1.1435472682442511,11.491266496250491,-4.573001318685525,31.792054767674255,-23.03488865680344,-24.177755379417732
6840.0,-3.744437608388672,6.274790788429556,1.6011532565359228,-31.245396472343835,5.263779835480634,12.580276867544875
6860.0,5.708076449054749,17.41420504276491,3.4948299017984352,36.114845550206006,14.604824046643747,30.274466728895582
6880.0,-7.0580177427273,5.081345223465067,-3.7717270307771136,-32.22121272147226,-22.70823908469347,-5.468314247949195
6900.0,5.426421314005273,10.539920512046699,0.9826661345621903,24.39363394079073,22.90845718042082,-29.731101825072383
6920.0,-2.236656637042562,8.716489728029007,-1.0639576074811254,-9.391807639777209,-7.4861370195238965,3.8486890843025243
6940.0,-1.768434933843019,12.080993030367658,0.5956380886640624,3.2580129075896265,-10.599802560306415,33.983769371912835
6960.0,4.795938346771625,12.218861181619719,3.5403834324356467,16.486558865768053,24.523906379978932,1.221244781109485
6980.0,-6.226230670124819,3.3733536272636466,-5.295172665505594,-27.336454031047797,-25.475605722242154,-31.26959538519257
7000.0,5.3916349955925025,13.90431301173743,1.4107969451981668,33.4152657894893,11.882955127501363,-8.549770384691435
7020.0,-3.8599630914455934,7.429011639801674,3.292120737581906,-32.544607541131114,11.77646473889616,27.374039983061284
7040.0,1.4014989908093964,15.21522493379252,-2.00471997966894,31.568544193363138,-24.19005208528365,13.000641750629423
7060.0,-0.40154521760189865,3.9549291990145625,1.6788296298265153,-23.417343929832114,24.701111571776337,-28.788779349713167
7080.0,0.7107554378176533,10.606947789688773,-2.6447311407999172,15.289487427089481,-11.039498457405621,-11.938689030835
7100.0,-0.9921463228330367,11.505648608948468,0.8347670983816088,-5.841650130477886,-7.333682627629523,23.80439020971593
7120.0,1.5402140390895482,9.657342773504496,4.0454714408072725,-10.139901486876376,19.91082817503982,17.18302651089581
7140.0,-0.46991595318447626,11.219496773623126,-4.6851265153390935,24.313412615107424,-24.758262775922468,-22.705904521949503
7160.0,-2.038464845340933,3.7982275599142636,0.7956744027251036,-29.768520698672248,13.616174631002194,-20.844709072085447
7180.0,4.95907253781381,16.47902867780537,1.5679388736638504,31.41348158536322,4.802874503252335,22.37719625918363
7200.0,-6.784521331683623,6.721950696068137,-1.451045705848579,-36.24710611647315,-19.80621235814626,24.723586119984397
7220.0,6.945152702870455,12.672567810916972,2.200005583630935,26.167341852051365,20.041096521618222,-17.128103286350218
7240.0,-4.449391610725072,4.594259764013405,-3.8374705674445666,-19.783241005149844,-18.93298751991698,-25.082049340481483
7260.0,0.3462961784639397,12.301314759241807,0.8791871068150298,8.571655961181852,-7.250861657131636,7.8681506282558855
7280.0,2.7304234785129395,13.011741548845976,4.0038898161935705,7.372043636260876,19.73228788740171,30.278252919902283
7300.0,-5.371257367739204,6.850601053842171,-4.405049525120365,-14.704057431229703,-23.139461802814232,-5.6866717572618395
7320.0,5.48733297982665,11.276039557932355,0.5966406171106987,27.08755820075845,16.92237546533264,-29.00832978435677
7340.0,-4.578384874032961,5.512799835591081,0.37724931177558946,-29.628223541484154,-0.4400078109445471,5.848397167503485
7360.0,2.48642388452254,17.440789817026438,-0.44631747048907017,31.886675140267275,-18.900187223025625,31.90311453164908
7380.0,-1.0733730185763914,5.612968977393752,3.3285192948440994,-33.57917013860432,30.677183055138872,1.9086737790290966
7400.0,0.7965569842754665,11.090191176006908,-4.264617921558742,22.469161109843,-14.63898918401109,-32.737529209857385
7420.0,-1.6255175481534891,7.232060142380036,0.07626521460332966,-15.43716926189766,-0.18457370347931423,-5.267010444658275
7440.0,1.6928991909430455,12.56587680528013,4.009751911774845,2.03346790003762,12.576942677660195,29.661403229666035
7460.0,-1.2127242905783162,12.061841734689697,-2.8990232619196563,12.170458509268496,-26.054202894361435,11.219821801200636
7480.0,-0.3335239796903332,4.209705634168109,1.0739353284315165,-23.382038620134576,18.39041596598499,-30.187486985736392
7500.0,3.444751411976041,13.058881928186253,-1.6460019311942604,29.90982037440594,-5.370071846115574,-13.650801591267145
7520.0,-5.782696977274836,7.19678252220645,-0.21144556423719563,-35.20577642155755,-13.070608550016741,24.52690800113959
7540.0,7.524808465483518,15.97999009541672,4.426800723422392,28.749344389028685,24.084548014865785,15.962808618685763
7560.0,-6.6320016448243075,3.939490347048414,-4.488751679959521,-28.930899286647694,-25.231196039865615,-20.031146285661723
7580.0,3.5218914078645187,10.845040667701184,0.19106833857820726,20.622578768906255,8.296090779639568,-19.661877629079765
7600.0,0.38094539372241265,10.367679305094448,3.2152548082936256,-5.549029605269733,14.221743670239071,21.26922488113043
7620.0,-3.3958922027147476,11.042024464405701,-1.8574214558620996,-3.185154982118073,-26.1818034706603,23.26478808968962
7640.0,4.783669520208252,10.4500739210818,1.8852692038405743,16.320175049203787,27.503050974892055,-15.33398943161249
7660.0,-4.752301728103467,3.60939712418795,-3.280232946966988,-28.55719930924858,-8.514929141188599,-25.794641108406722
7680.0,3.4481475505607246,16.09423735206616,-0.5003780079939697,33.06019246394234,-10.546019934470998,15.170102650031518
7700.0,-1.6125553867584155,7.0185995165024835,5.047373289670171,-34.1501899858688,18.789741007403745,28.443712853712196
7720.0,1.2430351184908404,13.886711511315706,-4.0324784862716365,31.901117148318715,-25.75000686917667,-9.996565312196077
7740.0,-1.4104937025417037,3.6660144851209617,-0.6438136078485193,-22.22938436242222,12.214239888409091,-30.32821059882216
7760.0,2.5847951188567344,12.336579984721554,1.1209983969391875,12.02315852592017,3.9323245924598083,4.616247870673674
7780.0,-2.8218852295876573,12.100541475437213,-0.9143036806623694,2.702422080206013,-18.567903209657295,30.032164221104566
7800.0,1.0802882579907238,7.865316088799931,3.272641707700391,-10.258080181571295,26.644801323453436,-3.09606984203693
7820.0,1.1327348808564235,10.79430635277834,-4.333056901923113,23.475644885130542,-17.42533958476817,-32.977228115642
7840.0,-4.909579145021703,4.997404450309429,-0.6776038675669896,-30.347649311462146,-8.0857896816058,-2.5979995005784264
7860.0,6.590926864044919,17.300874470844633,4.6247919725884525,36.12769758342824,18.60900884033242,32.37263257619307
7880.0,-7.2336313528695895,5.503805033710435,-2.8587890960720514,-37.85602357097987,-25.292605196411092,7.718006277861292
7900.0,5.350728240359079,11.476414432862983,0.36075724866046033,29.062674505035535,11.695293369741522,-32.05819337365026
7920.0,-2.6897504677808177,5.783392859408302,-0.4673217895678287,-20.57300041335461,2.2103487909182897,-13.559809666319733
7940.0,-1.3674632043685429,12.989510146025728,-0.6564813936297499,3.755757915843027,-19.88913590834974,29.213537752680306
7960.0,4.040690316237274,12.065108742857097,4.723558346444796,8.197647047919281,26.588608449678453,15.085916797679408
7980.0,-4.358261368180381,4.979045871971247,-3.9469975425051507,-16.183106862044994,-17.695643057797778,-25.385576439149155
8000.0,3.5299141694021086,12.284100051710883,-1.277268544522497,25.12040742805244,-2.5031276702523084,-21.200803682517684
8020.0,-2.301083151902768,6.667209429327205,3.711892304950856,-32.39626793768288,15.46911072190322,22.265946978908662
8040.0,1.2803027546233254,16.992704506557263,-2.0381264831735018,30.806911417753362,-25.89799582685243,20.263032980703287
8060.0,-1.8617192440957784,3.9065377204437643,1.7409630414433148,-34.237487139917626,13.613328174667844,-22.176460334869393
8080.0,2.6888933334179193,11.126921905104428,-1.9919146397068823,21.476796835365658,-3.0050136712640376,-19.517265384917206
8100.0,-3.157228563384511,9.425330917639322,-0.70799530085598,-9.340819202149987,-18.35674869067949,13.792445402401846
8120.0,2.729303614265607,11.984203612409559,5.137429045240392,-4.460787792454381,24.578881047860506,27.939564821228693
8140.0,-1.031633658233945,10.694702728258102,-3.554446215250196,12.365760686883293,-21.71271276123856,-12.636383151456293
8160.0,-2.2926684276121394,3.803037500335086,-1.3122495952789768,-24.269874891984166,3.619578582021051,-28.186117098872746
8180.0,5.643696815177872,14.5727619219197,2.497711090649036,28.88371236816737,16.02446184596813,6.539131380470225
8200.0,-7.5091927607434465,7.172505635015447,-1.4005887973453244,-36.41297723140653,-23.38462210099473,31.051513247217198
8220.0,6.903977739016086,14.155761942735948,2.836450478773966,34.64736244564624,25.531624582186787,-5.519831784640954
8240.0,-4.495395772895565,3.532129141604776,-2.9595030977956593,-28.038187386385918,-10.561643021131008,-29.84556998577479
8260.0,0.7567360979096833,12.47578461950578,-1.8524876708047568,20.295710834189748,-10.321189638517737,-4.234118601713266
8280.0,1.8422431714769225,11.267325577671274,5.473472793980529,-4.897977410970014,18.906326340444792,27.840682762200803
8300.0,-3.6066810499168933,9.59215508892535,-2.90061954922846,-10.1256038525554,-23.231478764464057,7.302118845401849
8320.0,3.5476376765624646,10.685356434809517,-0.7068101235155388,19.773219669180538,9.618770730444474,-31.909075039807497
8340.0,-2.880763202251389,4.96472140949897,0.44575330257179385,-29.903530129477158,9.319270500188786,-7.94103267657923
8360.0,1.6087668502429457,16.894261566304245,-1.310953157596371,34.8610779665032,-23.62438185916387,26.105366375129787
8380.0,-1.215866806403436,6.152438413762089,4.239657419039275,-34.504249321487485,26.47184605075536,11.526700187454118
8400.0,2.4364158051421674,12.186946417000609,-3.4290533685914393,29.042852997607568,-13.424403575814368,-24.854843365702276
8420.0,-3.658242793143373,5.373967279312456,-1.8913487224514705,-25.02021586887479,-9.96104770697413,-20.755777445223796
8440.0,4.369818889965606,13.41273310183567,4.606366995211833,7.834522729584094,22.81425992193906,23.74583702837517
8460.0,-2.647320961032238,11.230385601733238,-1.988720672035953,-0.6141329728144498,-26.199641147805064,18.402619889116394
8480.0,-0.28216467112390375,6.14111887507717,0.8521080060981705,-13.410932472056844,12.407928331655214,-17.884400259450146
8500.0,3.617463764438811,11.30379979061711,-1.0309113192366612,26.7105628401268,3.0925650060791443,-24.91913379994754
8520.0,-6.21285328895884,6.393177825419067,-1.6594328135427712,-33.89824195252343,-20.317997059380527,17.194182736049807
8540.0,7.346424496593453,16.917356322052473,4.985986394786697,32.928789503475315,24.767075138423763,26.451007891864887
8560.0,-5.887207402179948,4.093808762925855,-3.246283573163396,-34.439721428270936,-14.715248056844569,-12.713296238835133
8580.0,3.1585728664449038,11.16540849968215,-2.112786756038518,27.760629168624536,-4.959091510709283,-26.01556067232093
8600.0,0.2291369630836909,7.9968645425804,3.2695981692369673,-18.217800896669733,21.01284105923299,9.941901407261652
8620.0,-2.2492781901472876,13.144113910517905,-1.5447045103973724,4.21997288426535,-27.590880218730838,29.778193944797227
8640.0,3.3696073288055657,10.570783870955779,2.5701923957074104,7.36870410006327,21.040076965317017,-4.399129630580588
8660.0,-2.585886308075703,4.006199372600172,-2.0399372310889037,-20.947090155598726,-0.6918886125367886,-29.47757399019734
8680.0,1.7143515927804862,13.798262812854563,-2.4958186124780153,28.794441318387204,-20.31991006329029,2.1470959520927333
8700.0,-1.3216580494341725,7.509421714528971,5.44761285646448,-34.956636459381066,21.245478545872395,31.71142566457368
8720.0,1.8275764670138797,15.000998183508818,-2.333264862375313,29.340969277768142,-19.425782339511926,2.958465692076972
8740.0,-3.542215404299611,3.0726703773444686,-1.4831059171025185,-33.51754088142864,2.620513495521697,-33.80452918383289
8760.0,4.613431166273829,12.055972459694356,1.7679642014483827,21.01026997150551,13.15538393511662,-5.474799635179088
8780.0,-4.727653138103298,10.610063589613755,-1.436579411584077,-13.62577138221507,-27.62802637849136,27.45092746927051
8800.0,1.901416782872975,10.215425542059698,3.906516607412358,-4.302314016200619,20.058208263908565,8.321588614540818
8820.0,1.3237866405738585,9.737068075893438,-2.522470354272883,15.875702508230809,-5.8061261741800285,-27.92632476354452
8840.0,-5.11646958137972,4.945817403802229,-2.948455316107415,-26.27361092339345,-13.14743174497511,-15.063019125843867
8860.0,7.012580562162797,16.369408131755506,4.813485287386685,31.0223614298385,26.25472556377534,22.676887982438515
8880.0,-7.315660428317685,6.172200353707013,-1.736849889798935,-36.071986903254064,-19.442881391987402,20.36965680031264
8900.0,5.434268144251645,12.115886605821823,-0.921133398253407,34.47449364253594,4.040637693941876,-25.09593338143652
8920.0,-1.9927521997907893,3.982807549354695,0.048329502691552596,-29.175752791381314,10.1187514540092,-22.84505006435688
8940.0,-0.8717390787779014,13.625599844108736,-2.129641275583664,15.470659608415637,-22.90847393848793,15.825068410014794
8960.0,2.5828743583268645,11.475610764999844,4.644086846342572,-6.487865498002764,21.80396198742831,25.37659421408428
8980.0,-2.5015827897362928,7.428412461164585,-2.286522163180059,-8.842626686545424,-10.801214622974575,-17.863877783916976
9000.0,1.9508208927290345,10.723163961383117,-2.9291168830545677,22.332609177521544,-9.882287159857015,-29.730763552357253
9020.0,-1.0197088274407846,6.3487400395594396,3.706468079645177,-26.617747338356526,22.771843477256102,9.554911099559538
9040.0,1.717904611711017,16.943215005210426,-1.3807543079761768,33.962464852920995,-27.47051332009877,28.458539105063576
9060.0,-3.354842107637647,4.397000997668201,1.1833328124304314,-34.29323097428943,5.8974252151996565,-9.662039309234798
9080.0,4.410335448369726,11.355948874239347,-1.422528945712433,27.91401454730017,8.8278850579005,-30.521345416616793
9100.0,-5.370632958446615,7.037444368554994,-2.960415155012044,-21.472289251552734,-20.599850182842644,2.323030459139825
9120.0,4.062176474901216,13.525621887263686,5.4950918695749955,5.121822979046234,24.501400676172928,26.920576506490384
9140.0,-0.8645494479762496,10.501135431487985,-1.818781023191909,3.2823620783307894,-13.470688949041675,3.0799532884923018
9160.0,-2.782365565761103,5.3154672628845185,-2.3536775431665844,-16.778399237511714,-4.373636328611676,-30.499062336542856
9180.0,5.6577018303284135,13.2461262908019,2.554842278757986,25.68497120033719,21.523525287369292,-9.256458990460414
9200.0,-7.3375027084527344,7.566754568206828,-1.3706711866457413,-31.391137323388516,-24.97234575944345,25.69152556027587
9220.0,6.2412279428586706,15.70845744070358,3.004001164621985,35.62911899537663,15.309207406513957,11.391189020079992
9240.0,-3.8697126943297904,3.063628883271815,-1.7717112919641806,-31.993372907997426,2.29610969053692,-25.796982895515065
9260.0,0.7662691625513229,12.142576587078514,-3.5594316641444324,22.872481620270577,-18.457955835742986,-12.446258992713854
9280.0,1.100253464236648,9.87397694073437,5.206786251218814,-15.677133501356058,23.72351357938511,23.872249029163452
9300.0,-1.7968587998037686,11.766161363336504,-1.0286959224931373,4.302611455181669,-17.17443102039663,18.729617382752377
9320.0,1.2764313585901015,9.62768304262328,-1.5406215557355725,9.906249139363387,1.546816680169871,-20.292306372529385
9340.0,-0.9574703906302511,4.628064684918495,0.8691559527175082,-20.406035052108113,14.233561869644666,-23.47220908494163
9360.0,0.8570689968690814,15.631331732946597,-1.9829557537385776,29.531323576859503,-26.136590893453125,15.448535308663121
9380.0,-2.1132224484860114,6.8980451406652525,4.178927023490666,-33.265540219169765,18.398704647442646,23.605570332794013
9400.0,3.9823639651119604,13.584128255913178,-1.2492046142134592,34.00965310276799,0.9894122367666429,-17.73141860609808
9420.0,-5.667806368390518,3.4847529265153057,-4.069185514904108,-27.574364342266623,-14.750877485600475,-23.75433130835696
9440.0,5.700998530790647,13.912426646442013,4.226945578542828,18.560411014745124,28.618687678553794,13.614673376648673
9460.0,-3.2070040190610483,11.069877538856948,-1.0832651977271506,-9.051811074770354,-23.489759801509443,26.745492762010944
9480.0,-0.14589629241100865,8.649361902414883,0.11555404198396686,-3.410395178880972,3.359094451979474,-7.6418051785186005
9500.0,3.5947488309205777,9.948522052836676,-0.24576015676437324,18.241014414802308,14.872257853782365,-30.632785966874973
9520.0,-6.590262827800607,5.883545824912916,-3.071806990665147,-25.905795203815114,-27.71469618632316,3.017832726797692
9540.0,6.861508808626315,16.940684770321212,5.009205907667434,34.5408731889339,21.51448824321473,28.462075970673958
9560.0,-5.486066005669026,4.872020049036714,-0.9211745753917638,-33.311776141650235,-5.592907122249091,-0.8067871719528108
9580.0,2.733096065712923,11.526898809530211,-3.7243308070707597,29.810356400439787,-12.073453727347843,-30.336228156792515
9600.0,-0.28932530028702785,5.925752195636582,2.8996429745437244,-20.955668242632704,24.043053914322517,-0.22517387290260515
9620.0,-1.425717427757659,14.197369446820563,-1.6024716993636314,12.318112995662027,-22.97452743023019,29.507686704924634
9640.0,0.6061717281765766,10.654928673173172,2.147552678403297,-0.977160049133744,7.851607623723563,10.411514576255959
9660.0,0.018270078645609145,5.653307444605091,-0.48501520423766975,-15.169274597061309,16.380948080953516,-25.730158384452945
9680.0,0.04992300106799749,11.852445242516408,-4.1831729921163605,25.994269840413168,-19.691702143844147,-15.095118698761821
9700.0,-1.2768910481047382,7.822090716953361,4.696960916788406,-32.26925854535167,24.2192962218353,27.324927939539453
9720.0,2.9579750950665105,15.942452013032488,-0.6480060889235473,36.39645202523634,-13.685315507823663,13.82861704955036
9740.0,-5.2211972372796,3.020579843254018,-2.1365481230346672,-33.04556735652374,-3.0326341255256315,-22.346781728059288
9760.0,6.743787610080521,11.98638141014817,1.6366847918095233,29.16203336360314,23.517310944612177,-19.86967182846727
9780.0,-5.136887004443182,8.770359585312187,-1.6816627284964554,-17.655858748986564,-21.81601022553088,17.980494372949963
9800.0,2.6907389043364516,12.717276089119187,3.655282534367101,8.740305630749821,14.815618370221719,25.72902410888234
9820.0,1.3350561923337814,9.117261688224334,-0.4372647816755005,4.694037454150843,4.994711215143554,-16.293869977907246
9840.0,-4.6718939088505245,5.046961877120234,-4.849714882602092,-18.142021737301313,-17.989228046636807,-25.35516746843214
9860.0,6.922431350021154,14.730762849432942,4.287797593697284,28.29383875230851,24.72143610709445,13.95456894501062
9880.0,-6.125359276043628,7.2028951063078965,0.016192930561474528,-31.214967913972252,-19.04389995400336,28.859170135420857
9900.0,4.408024363844386,14.260082149976027,-0.9068692503552469,37.66106960165026,-3.538130994014059,-10.98554439789337
9920.0,-1.5775342114021758,2.7097413553594274,0.7562841219715067,-29.927065551953337,20.379426519518923,-29.46396808130677
9940.0,-0.05392487503713679,13.384843130657297,-3.2889186343208836,27.01934817576951,-22.363836315130417,2.751645650966321
9960.0,0.32506479004647937,10.327573983712435,4.624598845657733,-14.09632073816795,17.443198096432827,26.2260841162685
9980.0,-0.05344774540553131,10.182744023465,0.017392149100592325,-1.101387763860842,-2.5231810745775722,-1.890054461363144
