timestamp,ax,ay,az,gx,gy,gz
0.0,0.3252627948005429,9.757120321058553,-0.45109042310530384,3.193432695897117,-1.4749923250281383,-1.6502330108934082
20.0,-0.7214126606830547,8.807141012878358,-4.51356287018371,11.238537478065417,-15.0984897305541,-27.090838050586353
40.0,0.29921836891226383,5.938047715027007,3.1367076558918274,-24.140835265166483,26.865003455509665,-3.541470752472372
60.0,1.4440204105671242,16.93173919331741,-0.36083089918242617,30.660159786925696,-18.164026775765148,29.435597160064162
80.0,-3.949833157921021,5.918198051223958,1.2010835207656672,-32.199658037472695,0.4153662442277215,6.815220143007387
100.0,6.305709492152099,12.793158788607307,0.43073702271399483,34.99113128157267,16.182180837581612,-29.963048034412875
120.0,-6.683885389735983,4.846201022420482,-4.339400650435102,-29.08254961424868,-23.33146757170166,-10.594239866077967
140.0,4.562248608410979,14.711484821939296,4.168783990354099,17.615663221512087,20.408667806128026,24.97260779929173
160.0,-1.2751741043493312,10.422282436660861,0.4650252661722988,-4.484407592964728,-6.333539593800047,16.460485835965244
180.0,-2.6723207599649044,6.799633026122616,-3.3638019959963597,-2.6378898123423236,-13.44988237330658,-22.61624811473399
200.0,5.183355549033384,10.995527351902723,1.7954474469526005,17.81615639082958,21.598051440373254,-17.31459394284693
220.0,-6.394922285786532,7.562067871565874,-1.456960040109749,-30.350636399211176,-22.258250163534502,23.394669361902384
240.0,5.6157626552720235,16.52475439277689,2.43845758642425,31.54467077866134,7.3667394196845475,21.665841597099067
260.0,-2.9885306675558394,3.4813613571288307,0.6066988782872675,-35.69288506310781,13.831739811317291,-18.729775381028638
280.0,1.2792821412552398,11.889955339302459,-5.013775725818068,30.55170745438923,-25.193608947994832,-24.45532358388359
300.0,-0.19572499171992055,7.690828423760628,4.097473180806406,-26.2785743919959,22.539195270245038,15.705894115118808
320.0,0.07231915501316027,13.773708722212293,0.5436624080541009,12.036777644733977,-7.332651808376976,25.955531420737717
340.0,-0.8240975965880468,9.347397109213343,-2.0300517384227468,0.8090498727121571,-10.226929757549666,-7.545505010979898
360.0,1.0908166269164459,5.676016238627116,0.8144456713536394,-12.037296316632531,21.095904621242155,-27.52475632519371
380.0,0.5178682226627287,13.88723291597627,-2.867189446764407,24.659057766354998,-24.758333125850086,6.070590602729439
400.0,-3.1620396940272144,7.695024141272923,3.4594621244986485,-27.75547843543243,8.943818095962662,27.101288730321187
420.0,5.247240954917113,14.51917300942257,0.9706676341235888,38.072388162286536,5.040233598576428,0.13762973162054415
440.0,-6.639442897581171,2.7686849126241713,-4.718718644236365,-32.54909508246502,-21.482711585542837,-24.55546322316974
460.0,6.5472242050429985,13.68260603190085,3.0785578781075476,23.638542720657043,24.637094803560174,-1.5912570969912896
480.0,-3.9434708989391813,9.834927913901517,0.19368701852924797,-19.234972504219453,-13.555802692482349,29.53380636216315
500.0,0.02651051727286249,11.152880025040648,-0.25765829717927,4.827034314860224,-2.8640058299837183,8.617759831509453
520.0,3.757978310112469,8.560716402685024,0.9898690010046013,9.5117733078389,19.374657368964012,-25.754080129651086
540.0,-5.098965897563227,6.271624725921542,-4.482983452113495,-14.251146172621802,-23.50807591857286,-10.584003328564364
560.0,5.45647421713864,16.300315398291215,3.956925678686889,31.71060334042148,15.199072634208218,24.166650052994576
580.0,-4.376132755985482,6.155567168654193,1.3117458972206124,-36.80553156087187,1.531799626710611,14.495801532847736
600.0,2.175439919101603,13.00658497132818,-4.310915592769966,34.76042755556822,-18.099483465888586,-22.05942284312227
620.0,-1.0360556078893992,3.7793945743788684,2.7892071461641703,-27.72073862534484,25.324216813685503,-19.04233334705385
640.0,0.7818115630282517,14.860099791201488,-1.0629928688754955,24.211847874737,-15.985065039533417,20.74271260421137
660.0,-1.6450441207768354,10.253897969336082,1.4014395039378338,-11.332900608234846,-1.1323914876549839,20.22457352348624
680.0,2.1910268576085947,8.156397002906168,0.9862024062406609,-6.224724243641145,17.89821942481791,-22.339087918606126
700.0,-1.35406931729604,9.753662992040455,-5.276327594432898,15.32857431898513,-22.96254904364133,-23.011009412608615
720.0,-0.8866906821175685,7.61116843520231,3.7224478116964583,-27.68949745379783,16.91030551201798,15.4303717166048
740.0,3.5398477370941173,16.693392833332926,1.4456669182346844,34.184867411485705,-3.887704192187633,26.868353307093773
760.0,-6.3086356445282625,3.8373346633135497,-3.2666873841945727,-33.9921326475605,-15.01826546349068,-8.715323413784919
780.0,7.281952017060938,12.223396178855737,1.3870919852768462,33.007864443505106,23.204906524498195,-27.01576362259084
800.0,-5.837688453354473,6.624011617042181,-2.4926825735369165,-28.36096987582346,-19.59201955960955,5.467947996911628
820.0,2.5699268621246247,14.38408597222704,2.6429487789442745,16.014485237418878,1.308487610725038,27.659615840922136
840.0,1.1290069489212133,8.883768419790604,1.5316077702802187,-2.6063501302016947,13.405311486878814,0.19890327078807113
860.0,-4.262781454973673,5.98607981649671,-5.569077533775652,-9.4410422204244,-21.13941711979643,-33.490347115608955
880.0,5.341174384838949,12.720285100091708,2.9232327700281013,23.89010972269927,20.698272264746937,1.7818078443228842
900.0,-4.391032732848598,7.936390393563838,1.1397686858806357,-34.310508199506955,-4.395411470417711,34.716490131759016
920.0,2.989149502958021,14.932434285735924,-1.2601082054396218,34.87873171367305,-10.376408046484862,4.092066107729146
940.0,-1.51398803173615,2.4591952681498226,1.428118448069347,-33.16644873379934,24.2711329137739,-29.75306220160694
960.0,1.0906816228349983,13.395557920192418,-3.8703335474716734,33.56759811446621,-20.61881715240417,-10.725840671973355
980.0,-1.312689048190439,9.413474406956876,3.00784447943117,-18.852379326587762,10.337037111657517,23.63917761613872
1000.0,1.9781352109611583,12.22503161819458,2.103421540007561,5.618504198910317,12.211193113259625,12.652938588411807
1020.0,-2.2777135819990444,8.380805358707164,-4.923372743104485,3.435101132692234,-21.157007110373936,-26.733490874916683
1040.0,0.6550727630344108,6.012302414659466,2.1633215574813955,-17.268861912790246,25.925081271708628,-15.375485997440611
1060.0,2.013072783916431,16.09626330224746,-0.19572360984306506,23.66113637960664,-12.008953814613491,23.073475688533435
1080.0,-5.455181504884486,6.895661899276468,0.7310736759636762,-30.09906966871587,-6.2827676527539715,22.12131854706995
1100.0,7.09408232244032,12.713996578001312,1.9136195383926875,32.01723349982193,22.079041711624,-19.33781880566405
1120.0,-7.0808924616128,2.969929661194631,-5.090774562725564,-33.68086465113574,-25.77611942589238,-25.35006162336328
1140.0,5.149834122034597,14.702096057850497,2.769850074026063,17.803314966353966,13.415245606739028,18.1392340515715
1160.0,-1.2679304622000585,9.920694006992804,2.476651618012611,-15.428568624059297,0.7642655710163204,25.30486212766205
1180.0,-1.8655879586948723,9.005720751321826,-3.983262485780157,2.7060507849918425,-17.951971260945953,-11.299433577002196
1200.0,4.311784371470348,9.192808421437,1.9170695934809887,10.181786454759932,20.55038892054933,-30.638639064843865
1220.0,-4.870063481917581,7.7334149582951035,-1.457805739731989,-22.09421969431417,-12.93868505606219,8.128167705743609
1240.0,3.5400419496050333,16.702980725766977,1.5638435825963655,28.135189562458596,-2.3179144627409367,29.285854010767096
1260.0,-2.706618225738123,4.482373600549049,2.459578352670474,-35.42713776662239,15.821508362970587,-0.9548251037663551
1280.0,1.5947654159115459,12.018395626987369,-5.480102709653417,34.48243612815525,-24.351127104715978,-32.094735326002926
1300.0,-2.0445662396768443,5.9618999181178385,2.3886748329115304,-28.237485643795655,15.449593676688155,1.7383186083113573
1320.0,2.753401992771055,15.307289942381418,2.1796600591237025,22.335377742501542,1.288938176634525,31.797735738198213
1340.0,-3.5139259742920856,8.777749239964999,-2.1046315589968567,-10.576970021271656,-12.357422263324022,5.8061886009356485
1360.0,2.511864225511507,6.586075526826395,1.324929002530444,-6.047856172773821,25.4526032065517,-27.123736298126435
1380.0,0.19739084788359734,11.51003437432072,-3.4340068002968382,17.078336445193052,-16.597969449019875,-9.761817213801363
1400.0,-3.058769546975666,8.118850903270971,2.234112868415369,-25.083835541829078,3.170717980176768,27.885736271271632
1420.0,6.195286456428435,15.349778022483633,3.1695586119465013,27.53337677018708,17.923283916745266,14.311603820273882
1440.0,-7.613834966429545,2.8843531209151845,-5.107349259721887,-36.90512394532715,-22.81634974380536,-25.63517073529856
1460.0,6.953803194710154,12.844653237930585,1.866632374459468,31.187255527861648,19.34040080613601,-15.828967595400844
1480.0,-3.7049584420379222,8.433835009062866,1.0293837937065062,-22.10995678213515,-4.4773170328386485,24.227109189545164
1500.0,0.07494376863287827,13.551837278794508,-0.628597863149236,14.559374762450005,-13.80471275911753,22.43910777041691
1520.0,2.8257832180047027,7.861332585668445,1.8521417057907317,-2.5558037020029145,25.28451670445051,-24.438233548121055
1540.0,-4.227724573976472,6.574977692209958,-4.4415533989462785,-10.434387266915083,-21.474634897323764,-23.314018205508813
1560.0,3.7619131434884725,14.594751110023765,2.0442584439177787,20.84435498962121,5.742269631864595,17.08032925976536
1580.0,-2.425235520307234,7.467633175317011,3.5982363759153624,-30.17106598804204,8.387674874689843,28.022193607073895
1600.0,1.602552055555724,13.323503421918685,-4.3443446857299595,36.65186991620402,-25.396439142819922,-12.736668942870551
1620.0,-1.5811856209330755,2.5565376164830242,1.3905610512224804,-35.259026160739566,21.808318287958876,-26.761537437583094
1640.0,2.4351923198755454,14.484174790993702,-0.6114921143457039,25.690021023357502,-10.481039236365852,11.083602709834288
1660.0,-3.9104123841383758,9.608345979407753,0.4935205331699992,-18.20499362171341,-9.700017734964684,26.773084248324302
1680.0,3.4721889656502403,10.789536051096228,2.945375388687883,8.357259130403628,25.802896041054904,-2.692225430059434
1700.0,-1.9594997094028355,8.126768616158458,-5.54784352183868,3.9559266895547065,-21.09150773336897,-31.730320084043996
1720.0,-0.9775136213516206,7.56641925654831,1.6555757709980916,-13.605684679704604,10.177753532531158,0.3109724181878393
1740.0,4.49534343382586,16.21965311927961,3.1624431366120165,30.944793533521118,9.593317060999698,31.239057192981587
1760.0,-6.937791598950939,5.247806384047502,-3.0790181751750154,-34.12984735298279,-17.612332814162375,3.5026922137026064
1780.0,7.332552747668524,12.28236493196267,1.2228438999986304,31.763903478667707,26.95428437636371,-27.640992493496395
1800.0,-5.376563984896271,4.73900787389217,-2.2707650656214042,-28.875892496330636,-12.233866935437486,-7.899906958568864
1820.0,2.3703420299400038,15.514775493305272,1.2565541904507191,27.18210263202321,-2.7805297328560084,31.598392986083248
1840.0,0.8501102724782073,8.718890710630909,3.6915088033848464,-13.17169250683595,19.790890486967637,9.129988900418232
1860.0,-2.9700689858104212,7.731069469774161,-5.4360146068855455,1.311465852910921,-22.854455171199046,-23.805784615933455
1880.0,3.5552536418663756,10.094406361123767,1.3641361921581445,14.07154153598242,16.415737918031354,-17.052085076781264
1900.0,-2.5281294123735343,8.579255446637596,1.841513398320971,-25.964992706729227,3.1318090620662247,21.634125935820563
1920.0,1.7002965060015354,15.759349200001521,-1.3946159133362992,30.83012589651751,-19.216262156103287,18.89966098207592
1940.0,-1.4521226748669878,2.8351198876639954,1.8824261491383962,-36.83190271011418,24.43722105204246,-25.9821548409685
1960.0,2.4456665517473892,12.771112807607606,-3.944512751504676,33.69101429127532,-18.94755458912392,-20.59504657402684
1980.0,-3.4836545945961634,7.394974679709974,1.2538440288169659,-27.4977563019172,4.901798381977529,17.216100247060567
2000.0,4.368959208920095,14.234872879772219,3.7474105390116508,17.613588638980854,16.49882133290004,29.302863452305132
2020.0,-3.5145567111868057,7.756608802848092,-5.00284171305252,-5.182576050257526,-25.272499060350974,-17.28672383422836
2040.0,1.3549999825223444,6.990191176616074,0.8322118037069314,-8.907831131008752,17.503751621656413,-26.78294787664566
2060.0,2.0736952274793468,13.526355649511894,0.3742474471602636,18.863158624380144,-4.8506812203203165,12.228440846382307
2080.0,-5.527045451961692,7.925562523636381,-0.15277004595378119,-27.712988867385942,-18.43530335865433,31.443664622647823
2100.0,7.340060009259402,13.70948544120511,2.978998039585488,34.20017834409688,22.630091942176467,-6.188234938168638
2120.0,-6.9593995315489305,2.3324599296221407,-4.870519755292873,-37.407793586741775,-22.675429185761004,-34.07095027081059
2140.0,4.447464785728316,14.476247002986868,1.257178188815245,29.26723008497244,5.979468663502368,3.861421589858759
2160.0,-1.4067632065227142,9.177834400945887,3.6586490929994606,-24.52146365962869,17.720064618733815,24.760902308637785
2180.0,-1.6907168879011327,11.900078641939936,-3.66194472989392,8.613356489297871,-23.421418065604247,-1.1181309544754854
2200.0,3.036227949348865,7.046412863150431,1.1046846415810208,1.5040028011136077,24.354263980802866,-27.921724755932324
2220.0,-2.457331984880414,7.044052666078371,-1.1881529093618985,-14.1871334711314,-7.841125764230349,-6.708811510944486
2240.0,1.7989466781053522,15.567252904766983,0.17800847677416845,27.74969765204871,-12.954726467718348,26.45213550389286
2260.0,-1.1116315684609388,5.983818984561825,3.6059605044165113,-33.75192720395057,25.44623128898018,6.658737573012592
2280.0,2.037460606238919,12.336404000652905,-5.041825299533465,36.45123143526515,-21.529909926500807,-27.6682912592671
2300.0,-3.0374659563146658,4.070000941626868,0.532176644008959,-33.95194702344439,8.849935280328696,-7.6069019580984
2320.0,4.730513990930877,15.870477207846013,2.7835198842508584,24.881359426719847,7.5291675225780885,25.941313822018742
2340.0,-4.71476356474707,8.814759657977831,-1.620227812532851,-19.55296879180242,-20.513797766557644,19.405304335660638
2360.0,3.492657730712318,8.824023878235861,1.7242375308651972,6.863263700184124,20.566126582760383,-21.93502620068441
2380.0,-0.20595592621067366,9.074820014998501,-3.08965597330284,7.431579906846337,-13.85829157169875,-20.407922327964034
2400.0,-3.3186421613987767,8.655764906991756,0.23159713770244733,-19.869922125551636,-6.677292158679953,20.235649436108623
2420.0,6.255181808997187,15.802449557375338,4.643464051506858,33.572873839900176,23.657838106145427,22.77284027718333
2440.0,-7.359125523048713,3.722672557017267,-4.7530593699663015,-34.82991288509016,-22.096698914130954,-16.767867569278668
2460.0,6.186970163563001,12.50548264140982,0.13276576364757303,38.02678767639623,10.142842821091314,-25.987358072770775
2480.0,-3.2357831543392006,6.635829318881552,1.5094208075500757,-29.010118997308624,7.440497305492567,14.297633479346093
2500.0,0.6310597980588706,15.112206010765734,-1.2405443172779003,24.75646586022871,-19.42134324363037,26.509179414188022
2520.0,1.3729315845077363,7.3426102031291105,3.027430472220224,-8.097668318370285,21.812304783144892,-10.223797149550862
2540.0,-1.8828737570193224,7.149854699163429,-4.007698498741065,-3.382911428080733,-14.886307191963615,-25.09398834346591
2560.0,1.6639119632688957,12.56023437060338,-0.30350667183501573,14.324647934198799,-3.103544268505535,2.355986085765347
2580.0,-1.0086237469093204,8.930371947294343,4.283182038601762,-26.73569863997008,19.310569972232116,28.058697497273144
2600.0,0.9691096933519934,14.523805060916295,-3.3495504917946795,28.84275765734613,-22.563831614663027,0.5845448755913241
2620.0,-2.5742244141833908,2.282217067061765,0.17407960263648212,-35.18893061596747,17.498554612243677,-32.20474530784187
2640.0,4.458179272483332,14.070060968705663,-0.16620163858018872,34.024247537748074,-1.0720804548508207,-3.5865995694055472
2660.0,-5.530082387380433,8.611690335544926,-0.3764396035887333,-28.48775072930817,-16.019151656746512,27.949801122228294
2680.0,5.244984166706322,12.69619511844914,3.9926038834383895,14.49622169492092,26.278638883658108,8.629739345560498
2700.0,-2.610065595094164,6.841271904897735,-4.397392003955264,-4.392085102495004,-19.300791163629732,-26.153077570571774
2720.0,-0.8013088291734896,7.329583973284085,-0.6035339475718431,-10.617601447800237,0.9969702641305799,-11.48229235385678
2740.0,4.25748773095894,15.052302731243477,3.8329550486347896,22.58055262501237,12.302689279114626,27.683363235293324
2760.0,-6.616489728295197,6.956370978221559,-2.2422483961609934,-28.022349637285384,-25.315034447720336,14.990457603900246
2780.0,6.653049761704527,12.87691960091478,1.2405159975914566,35.178291740871884,18.92888813424108,-24.75805710368437
2800.0,-5.191940436148652,3.1598953224790747,-2.0525118801652913,-35.46842864529138,-3.1038781915784988,-16.892251650678354
2820.0,2.3162325835814235,15.61093004683527,-0.28680984798629805,30.10529805118811,-18.394572076128128,22.481201350521015
2840.0,0.2560936960693864,8.438991048528399,5.097337447830371,-22.707810656116795,27.10793586276793,26.341306794868814
2860.0,-1.3336529265844936,9.88455380129418,-4.318966946555772,9.52007682163163,-21.56273730697387,-17.334725787494623
2880.0,0.7937723235700367,8.034018843544377,-1.277604002943957,1.6689801684712018,5.294752446942567,-25.41228895996398
2900.0,-0.5136917755279831,9.14143658860338,2.5136950451844755,-16.488447219462365,12.447872648588598,16.240784518179737
2920.0,0.36915361278145287,15.775819996421452,-1.6700981693554608,21.37682228688197,-21.68009504631145,25.77196363968964
2940.0,-1.1721292496837674,4.384828992563611,2.247839213501725,-32.62491399301379,23.39330010346704,-10.638170292613738
2960.0,3.891636689335944,12.0390534560091,-2.909735876889801,33.19107529935999,-10.305548371699599,-32.045923906820455
2980.0,-5.268976597981082,5.399470415966363,-1.0050990011768737,-30.727392374053863,-12.29182217457711,4.539332955755512
3000.0,5.744211699210536,15.875003785260926,5.087044208445062,27.03380233183032,21.860116623800135,28.092840365227527
3020.0,-4.678154206795516,7.3689843595470546,-3.17279577325908,-14.825621249570261,-22.59790557660228,-1.8676552681813463
3040.0,1.8132717402177303,7.876732876594359,-0.3417826083046659,3.051977942988645,10.150733741063124,-29.638472791641284
3060.0,2.163047662298804,10.934273365311855,0.8087350047388387,10.161012044933575,9.627260510109517,-3.1615229577865955
3080.0,-5.54904659982473,9.016235420697175,-1.0214982204232712,-17.644107701014324,-21.953701340360116,30.21994004963005
3100.0,6.749628183361138,14.611365096610685,4.069106363123638,31.71659762735269,22.725731204302658,7.766125576878774
3120.0,-5.750871874075839,2.715692124260329,-3.8524645830899127,-35.09951788242451,-12.630533979671373,-28.630933380163267
3140.0,4.279983929164609,13.796937056634567,-1.3627706418243588,34.70621032108146,-4.6014934506415965,-9.426800677309949
3160.0,-1.4276368918699311,7.6650722526373745,4.565623639148162,-30.27384459485991,22.158608338027243,28.121221831712884
3180.0,-0.15680532674919062,14.095572969852459,-2.4626060023517855,21.135163423900057,-17.7908662057977,17.057040421163837
3200.0,0.49774029155061283,6.403324135728618,0.7405002010983477,-7.819553298450254,17.9196777616476,-23.617239767365184
3220.0,-0.25272273946235585,7.832452301645855,-0.7994024018861872,0.3268059677515076,5.461818254410631,-23.86636731364088
3240.0,-0.3409125459595995,13.976285230569577,-1.0787997397939586,16.73114186171363,-19.942753196605043,20.570948203617707
3260.0,-0.3475598608337649,7.877328783472054,4.98557836139588,-25.96446759455585,24.52840099867074,20.007152353444575
3280.0,2.334621516414464,12.977386831503273,-4.043476436009721,34.14931965878262,-18.662476326707274,-18.35594083622407
3300.0,-4.737306619245675,2.725873507781063,-1.8877783931035985,-35.40908190000698,1.9453897250813201,-21.114315103507465
3320.0,6.233188226797726,15.582917892944987,3.7584279174861552,32.19565152505699,17.470140038761524,16.241936079726695
3340.0,-6.588395432904029,8.157964496322,-1.4166437518513328,-26.68093463047998,-25.723386873545568,28.25269773729243
3360.0,3.906415190676831,10.874230237903976,1.5049505668708818,13.530240879049447,16.734950355429287,-12.4444046066367
3380.0,-0.141859324694591,7.1685909821944325,-1.9475475842973584,-2.0431242906046037,0.10073107145438964,-28.71995901237842
3400.0,-3.6312620686790416,8.818936585513624,-1.9732975845546883,-7.530295435863293,-17.206201180534958,6.679981251578753
3420.0,5.794872218179028,15.869965656579753,5.619965058068376,21.92117137377289,24.66194986889404,27.445031976300083
3440.0,-6.34412282317347,5.209711425204961,-3.06888075551624,-27.99021089308812,-20.658380617858015,-6.695043039047085
3460.0,4.998677981225317,12.175229754620592,-1.4548809756598542,36.692722763878436,-1.8837616219661073,-32.0016233540643
3480.0,-2.5655171499070124,5.118631044860092,1.8449645572496678,-35.788273571386654,16.37439351559497,-1.4273626425351866
3500.0,0.7576460016487867,16.41728514561971,-1.3266735603776236,28.072878072201327,-23.14265277544885,28.67833072792116
3520.0,0.24343487349370985,7.453390452755156,3.263101947212302,-21.190505106347132,23.545649390168876,0.10562808572132898
3540.0,0.36481790436648825,8.343036120860202,-2.7028460905088267,3.27749856117162,-6.179077050577312,-27.221850107667656
3560.0,-0.885832761315164,9.477600401227432,-2.147996140703741,4.375770777179496,-13.112638707344475,-11.773758263538094
3580.0,0.766967556161187,9.68525132738208,5.196784966315422,-15.45754939085484,23.165908928055963,24.56274781969313
3600.0,0.943742683209077,15.122236376509486,-2.0419948525729854,25.60977688846565,-24.87363124733046,11.133391623828667
3620.0,-3.254457263147563,2.770439029039974,-0.5328880855767499,-35.058920050829556,9.527365819883387,-28.21349847157316
3640.0,5.888499129617888,13.45752577033434,0.34800174065032097,34.11579073991237,10.580081110955119,-19.42433086566768
3660.0,-6.903209096189123,7.43422111254849,-1.7570052160975034,-31.00356893210206,-27.58279200521563,22.1362025223434
3680.0,6.308123004002842,15.163087748590522,4.635495886406186,24.072811991973673,23.45667720173793,18.669880060754718
3700.0,-3.025534632563157,5.998259925897087,-3.2487265645006103,-15.501690965888198,-14.31009954994415,-22.843048412823627
3720.0,-1.064673694118449,7.884349221326288,-2.5553198681871887,5.944051592927762,-6.692509846632159,-28.13698113955157
3740.0,4.237504226119622,12.787694965854255,4.136171193080999,12.011844187845762,21.689696867514225,17.5806365311561
3760.0,-5.985293186615885,8.33504495448825,-1.4378835189519878,-25.54585571943432,-22.979614317174303,23.841354474246728
3780.0,5.361514902719392,13.376356862639472,0.6966703729070571,30.71973040502078,17.7529306378431,-13.861961024716592
3800.0,-3.579251407096333,2.5103370799890516,-0.8647691947132035,-33.5143333473098,3.3672219238162326,-26.376897553815517
3820.0,2.0813863164306516,15.124242396818065,-2.2535128925041477,33.31709335892462,-22.696117786138473,10.250960288378373
3840.0,-0.8108312045098716,8.369437600664964,5.2822919097283725,-26.32057552316551,22.608641182804593,28.569542933597127
3860.0,0.5277898278286689,12.327419045127652,-2.512316791308118,18.257801276104537,-17.41999472622196,-4.4241081853143065
3880.0,-1.52408371294658,6.097551782273664,-2.7046346798616545,-7.45400185556427,-3.794683851320787,-30.714280941483533
3900.0,1.5562553799647425,9.23181487932029,2.817074030785596,-8.353896522913729,22.389643228396807,0.8274955987735958
3920.0,-0.504153729831093,14.745385409133991,-1.4232531028647146,17.70224789047973,-24.447325269044473,31.14929684246786
3940.0,-1.8869381094828293,5.834315036703982,2.0815668966724177,-29.25542512388537,15.927337706599495,6.199266999744843
3960.0,4.246450705194008,12.38254448257166,-1.8200146675602105,30.372730683903644,-1.2922947649291283,-28.480890530675175
3980.0,-6.430378502034997,3.869022879884823,-3.1667394053895315,-35.18744105421541,-15.195483414151171,-11.958143832021142
4000.0,7.001480580964373,16.498761053222182,5.753760101961332,32.656662049037486,25.181852039558038,30.421587124907354
4020.0,-4.941495920608813,7.5795565157608165,-1.916432592595394,-25.755367599057763,-18.66448535646793,10.714055385959306
4040.0,1.917334316263616,9.101839278130686,-1.878826836552957,13.699396293039962,0.3826703195275527,-24.461810065250937
4060.0,1.9074556522275576,8.686962961580782,1.6426198617208296,4.854676762649129,16.968805156987052,-17.194143838736053
4080.0,-4.738495647171215,9.794997963310388,-1.6466641252452463,-14.17772955845268,-21.434963468686064,21.411569022580412
4100.0,6.025342385713544,14.880551651286213,3.8861215977975836,26.62686977544655,17.810945441724844,18.753302191114678
4120.0,-4.315669207245759,3.379856604860093,-1.8221746356230502,-31.290414515635465,-4.289882943338472,-19.75799991431648
4140.0,2.460675405129365,13.202730225685412,-3.510424809991644,34.945348122898366,-14.137374569497078,-21.658889968071655
4160.0,-1.1947726785371646,6.41350369352671,4.08547541725724,-32.036269931520344,26.437705785464143,17.446910557105916
4180.0,0.7553364063568256,16.041051050600803,-1.054917534676453,24.717745414377994,-18.861679487379885,24.307592965030132
4200.0,-1.676403109221495,6.359205812789977,-0.15615406358192538,-22.627532964346493,7.503039615725614,-17.436021161427398
4220.0,2.3740383789070236,8.398287337125602,-0.253907752011138,6.836017550054569,12.111606054272459,-27.57809868597724
4240.0,-1.7679172540038015,12.066929949774693,-2.6212009569101675,5.529230846213121,-22.988956101827306,10.09632027231737
4260.0,0.23150244806295964,8.942174498912667,4.8705645318499595,-18.611876754245202,20.168558322477686,26.449581750914632
4280.0,2.6397693657593853,13.086502532275883,-1.5667585904779822,27.575074711860413,-7.367526890648971,-6.205259100136423
4300.0,-5.027595288930325,2.6154212985555505,-3.3834942492702416,-34.52736911523833,-9.801365517326705,-28.679721572952975
4320.0,7.032110395457731,14.968155340940784,2.98556310198006,36.19944331141967,20.896561729189806,0.08871728407561852
4340.0,-6.649197469326103,7.636991191160421,-1.2105041093089581,-30.09175839738496,-26.70514712557115,31.26752195705259
4360.0,4.124274426610664,13.56189391712289,1.5788161752577776,27.162799122969368,11.703921384815482,0.4221002684347661
4380.0,-0.6484751240278981,5.3745918913672055,-0.9159960606804599,-10.512637859117657,10.230562250690014,-28.07186204414983
4400.0,-2.894620703070588,9.09017171304985,-3.6383878656202153,-3.9424696085499837,-21.04789769762486,-6.821942422206059
4420.0,4.802194377611906,14.186310810053602,5.101066572288593,13.496069241285674,28.958747888807785,25.154971066797636
4440.0,-4.613154807356672,6.8336603767541435,-1.1920176981785289,-24.4215152386377,-13.373100792438617,10.837698948671068
4460.0,3.188796502892788,12.259759226727873,-2.7229490652179176,31.39289669227594,-8.709663487399936,-29.574222248874406
4480.0,-1.8020164225547408,3.52953071606936,2.1639261892203216,-32.81009306886547,18.965666625535782,-13.546728277085023
4500.0,0.8533000617367523,16.476647679656143,-1.7581018506542874,32.20920432640887,-22.08980789297361,25.733533704662218
4520.0,-1.2418444043023924,7.515045441261808,3.2598448260158577,-32.77321037828531,12.743019550604568,16.915357193215748
4540.0,2.4380198642697035,10.326066720244018,-1.174266033367684,17.30119016753054,4.234705250279706,-19.598568203359218
4560.0,-3.0332382424254094,7.025605929672411,-4.071450757022758,-8.229218295320285,-18.690652190691004,-21.613552180439164
4580.0,1.9602210870356163,10.421239429910854,4.97480537258764,-10.583465579933714,24.957748860949728,17.603845463834517
4600.0,0.5543989995624138,14.573443941029755,-0.8523064520446804,16.278813368006443,-16.35153255389334,25.41243594201742
4620.0,-3.799751801853016,4.554944517772277,-0.9766134778070488,-27.52803491349597,-3.755270325635873,-14.702721072470418
4640.0,6.859646651980224,12.724479398662194,0.8674371210485589,32.95195308501451,16.63581664074539,-20.40188476342113
4660.0,-7.5221533248868475,6.1265131480246495,-2.7733051932298425,-30.778597120181047,-25.250703550745314,12.025664490468857
4680.0,5.910656154220275,16.591428289410675,4.454732346249047,28.763655891879633,18.716507156038197,26.52692720283161
4700.0,-3.0113612620735597,5.826830862456003,-0.7508494659104071,-23.62937802784221,-4.937597249041425,-6.00222769889073
4720.0,-0.7418208563928952,9.248678602946827,-3.940362726895761,9.010498159630572,-16.429597178731438,-29.433913644822994
4740.0,3.5870245038054778,10.580553857209205,4.056680375007154,-0.6935994687783524,23.613554553403247,5.913156039254419
4760.0,-4.234049035085202,9.916850785266009,-0.8742251396979276,-14.31738020750912,-22.803704718950918,27.342048026596608
4780.0,3.7353380356560555,13.596526497775692,0.569442406514534,30.145495888308492,6.550623899086986,1.796535327179844
4800.0,-2.2104689607441457,2.432507768083355,0.2674671046819296,-32.44838428453108,15.530440246481099,-29.92301124391186
4820.0,1.6470537184889704,14.2510974472776,-3.7115641842216682,32.65639997452191,-24.810329303687734,-3.462414900214343
4840.0,-1.5259251856661085,7.182936620881216,4.806320181732808,-29.776643609655522,22.138288534600896,27.50844928394123
4860.0,2.693635051207761,14.475306312913135,-0.4889285167901767,25.430634577909824,-8.452436198854056,10.171976852425862
4880.0,-3.3201429579122452,5.0633565952394886,-3.7145075704255244,-15.45303588002011,-13.261310794805095,-28.305719716917157
4900.0,3.4772304442408264,9.078651648846899,2.4424421199402846,1.8291877969726027,22.167808839833622,-12.548235582749896
4920.0,-1.5644900610445938,13.40025264127374,-1.5106455697178383,9.115843803273991,-27.076892193597565,27.618412914367763
4940.0,-1.8920214806178952,8.087195524940096,2.739077330886386,-22.06364527331438,6.109250102286708,16.108746085475143
4960.0,5.148431720678018,11.835247600465722,-0.2302899766346337,34.05562872380862,7.640127337359903,-22.98594809814417
4980.0,-6.962430624804567,3.265400281041309,-4.422767873697384,-36.553275110032786,-24.041504086999637,-17.169958783524077
5000.0,6.970551455384578,16.357247669910002,4.3952311239872035,33.93900035319873,23.902431621780035,18.43550756753381
5020.0,-5.018697201450813,7.773767429626558,0.41573232868933696,-28.7411945007649,-12.545908837749904,23.59905228734791
5040.0,1.6975159038070522,11.383322252950725,-1.9548757632357865,21.339661826836675,-6.430997191355953,-19.720637090639137
5060.0,1.6316022472135523,6.5576332811027696,1.536233927471946,-10.058415287519018,23.90237335383845,-26.934346496794177
5080.0,-3.448909894551222,10.480595856551519,-2.324287015410614,-2.7965273691243198,-23.808871958042655,14.519390914876146
5100.0,3.632878166906691,14.397647899222822,3.3622546551235786,19.025138254657374,12.064938584300295,26.736351608700982
5120.0,-2.50351752288548,5.559755594654126,0.3664376605937026,-27.003282771856426,5.346609557922159,-9.888887077694935
5140.0,1.9490916414446464,11.947725199243346,-4.978044495953904,33.84894191375383,-18.70886543500411,-28.594472526845138
5160.0,-1.4629208838500727,5.354445853670595,3.567531757869136,-40.12495354824163,25.121775560694054,4.7549590596713776
5180.0,2.2985910370487437,16.65247380838303,-0.03468436027201618,31.59503626709868,-15.927576004524951,29.105408976675996
5200.0,-3.708084210975586,5.877068745708979,-0.7083537045801142,-27.561640697391866,-4.303208533037213,-1.6604320199476983
5220.0,4.4811166165898255,9.106967804642991,0.9517066135773476,14.415225506679487,17.076922783834558,-28.64621971236397
5240.0,-3.274138533576549,9.693264977167114,-3.766704575916482,-5.644233006024878,-21.48752878905453,-3.665832974083634
5260.0,0.5919955459193057,10.866228385047958,4.322135567771319,-10.98710638292017,16.290517306742306,30.954002757910544
5280.0,2.784404461819882,14.052681611615673,0.9081791799643575,22.951495589639595,2.825553117003622,8.231566525599103
5300.0,-6.045507415252767,3.1880305111348965,-3.946784143549634,-28.72225620615692,-17.22702789592075,-29.839064079995627
5320.0,7.665623940703784,14.209529944955968,2.8603636152889456,34.65775711723961,27.269839813694155,-11.45276968785485
5340.0,-6.730220239369311,7.2052588812286675,-0.8127006981533245,-37.700124507074094,-16.874325290031056,24.50305897019125
5360.0,4.113137029154208,15.275630305041357,1.2533648838351394,26.436346088387484,3.270916999835917,14.075007551820944
5380.0,-0.4709745006597212,5.157759741479455,0.4561198308427008,-18.740702888004908,17.552816491615186,-26.19672384237311
5400.0,-1.9808284226589514,9.202471272749602,-4.824968234405019,7.723404280127573,-23.782330174042386,-19.17799773696618
5420.0,3.0000760800530872,12.302749492858599,4.037193353616741,3.3615713655723036,21.83495434738224,22.433127555205196
5440.0,-2.599466796595897,9.567276499386221,1.1593180319463747,-17.655397708816892,-3.825272839632537,21.640474052640595
5460.0,1.6353337454645849,12.262090836618825,-3.5215053872357718,33.072999180501526,-15.40130603383199,-14.404841170467108
5480.0,-1.440830579108263,2.9895344562284882,1.8931958936632753,-32.270370743427726,25.149983506973765,-24.511375694497765
5500.0,1.8450371588618322,16.936825084601637,-1.9365151864789472,35.00212742493294,-21.024169516277226,16.408502428463773
5520.0,-3.4070551594553193,7.331364577304356,2.511479035563562,-28.635352743216973,1.896916567634047,25.879347609228038
5540.0,5.00224427671483,12.375173201415747,1.3207582638342705,23.643892409420687,11.166293535365828,-11.061949163496067
5560.0,-4.627490115901968,5.29527235657316,-5.382274772929208,-15.18737442385555,-24.842593999037,-30.252366249422415
5580.0,2.821110506658385,10.340585349883773,3.320670892674772,3.1748728397711385,20.768680860241062,3.8889511079274364
5600.0,0.23428212593978975,13.903873012656318,0.7572665997818484,12.078327362699097,-13.489974549281728,29.831640057115514
5620.0,-4.37417947154175,6.4761875540321485,-1.7106356208663063,-21.699018436093716,-9.982945960549849,-3.2126437761387754
5640.0,6.598422601317447,11.20126399081482,1.2536366801998775,31.481012934200333,23.61106118325194,-33.42658437552608
5660.0,-7.449284935284854,4.7280120130292795,-3.371718338702567,-33.726431114763834,-24.601498081630137,-0.9921748964205424
5680.0,5.288567126554147,17.284804848693028,3.4036536123316288,32.51975278496028,10.346215464343752,33.59051532665859
5700.0,-2.5464792385939496,6.308173972861139,1.4484267742262522,-29.711428589378134,9.941243441539795,4.582296833484838
5720.0,-0.13613634778705874,10.235410545767847,-5.236643865713891,18.164545351306554,-20.992991983562625,-30.836120045062536
5740.0,1.8966407400767407,7.842629222992451,2.7560315700165625,-8.593370761302934,20.846965549533977,-7.635874972619087
5760.0,-2.546780612902725,10.896325698449864,0.05492267514418229,-6.947103912177911,-11.532897190275541,29.249391698194316
5780.0,1.44274910508939,13.558435484403136,0.14549550396996183,19.650334496645137,-5.7624792115190955,16.09645412022358
5800.0,-1.342542016570735,3.782342714973112,1.1047165776934689,-28.056055355989134,21.638470619562483,-26.411712364951743
5820.0,1.3443969956697246,12.7724036147254,-4.707401129906008,31.78826172720182,-25.347772071514026,-18.946392903686228
5840.0,-2.831737509665031,6.921938856772578,3.2543502636428294,-34.245644275547804,13.874260618129668,24.266303887992134
5860.0,4.536163273193864,15.99049404110219,2.0400871397886737,35.613755210652954,4.274598754524958,22.855275658258144
5880.0,-5.526244485901326,4.734069468826592,-4.14144670209243,-24.31416429995923,-19.413881810465085,-22.313684759988114
5900.0,4.534777629320353,9.589373944942292,1.7730345614768712,14.579787348843357,24.810940319412765,-25.686728639900448
5920.0,-1.8864319018368538,10.846707799935457,-1.0470405450912876,-1.0197059548638505,-12.677521277309875,18.907703476433934
5940.0,-1.8716788418397152,9.763710713783741,1.462615320809158,-11.112616721360935,-3.665962146239207,26.278648882787937
5960.0,5.294045148589534,12.190924268788288,1.9139616230735255,24.40160323729972,18.152695945381694,-10.412462790158925
5980.0,-6.828141441746544,2.9496165343030087,-5.632949555085394,-32.406876291992326,-28.019460567116543,-27.820610576635907
6000.0,6.564783987328987,15.60898887969758,2.878652694259449,31.886757045661422,16.2126521604038,6.80090464837786
6020.0,-4.5791773981026935,7.216696858037426,2.2164711944593174,-30.92887988719331,-2.9767361269935195,31.45903057485199
6040.0,1.279091791604441,13.460544732830558,-2.673663069028408,26.18526084306903,-19.53290488630259,-4.284857501035934
6060.0,0.25824381310528155,4.730563311207256,1.3697804963185574,-18.02951403198946,23.91357931594139,-31.704269540450866
6080.0,-1.307159635951858,10.593978478057702,-2.792217695762027,10.524941792800544,-15.329068687265345,-0.2860035551687813
6100.0,1.3705039118295739,13.400951871460563,2.17556768374461,7.81134687557522,3.026517865753674,29.370323375314282
6120.0,-0.5701018257539041,7.482473510751042,2.3402916145270547,-16.854244264813005,14.518122209636243,9.086803727474912
6140.0,0.5122062707598981,11.736270508325562,-5.394797052103185,26.052769160309623,-25.852335561016655,-25.88863196021306
6160.0,-1.8505124426404422,3.9491791640090677,2.4284345274964694,-38.0851557861037,20.513682928627453,-10.35718907675945
6180.0,3.944982380285828,16.92453017960265,1.0833137975929508,35.59491260090069,-4.5152484015430625,28.989068881280282
6200.0,-5.54358749635007,6.937839762636182,-0.9900015780765229,-30.400096825060572,-14.772538608958964,12.369098140016906
6220.0,6.040280578929064,11.028879356892654,1.8631055626577122,20.58063706939143,23.99904257068369,-26.158308026535874
6240.0,-4.517225233411781,6.725817698808802,-4.216009296100374,-14.452903990853077,-19.59282553176165,-17.073057249198584
6260.0,0.7326678616578912,11.654507764004045,3.1858339381784706,-3.558519807083539,8.221508252974273,24.464687022155765
6280.0,2.958969200124629,13.220541141900444,3.131261389503548,12.780854393262697,10.003367447171597,19.805778940848764
6300.0,-6.198241958672137,4.7917523720873385,-4.849287746031983,-24.59063674029876,-27.003811345924944,-21.482537097371402
6320.0,7.026456181013866,12.391126556022781,1.6048277564746807,31.104996979105557,28.00149023916239,-23.491350910133043
6340.0,-5.747499948889912,6.527551625300152,-0.46442000588292404,-42.31039886189099,-10.910255879404419,18.00949526655233
6360.0,3.435941543878186,16.533347066180987,0.5452791458689149,29.82631700837453,-12.897293313106111,26.000907067655543
6380.0,-0.859249064942363,5.00915107665955,2.2505082476350022,-25.265063534600028,22.217226314969416,-13.183128989892428
6400.0,-0.894312410550693,10.450267392259029,-5.372719829397061,16.233828293657865,-23.087744365538736,-28.826837928147285
6420.0,0.5277008199717226,9.451232724862145,2.4880637771454097,-4.712733283643895,12.739495263166173,10.158102058195876
6440.0,-0.2551976269774577,10.915570276223912,2.910761034864197,-10.532093174874094,4.8530880817445246,33.37012479028894
6460.0,0.04130084973862877,12.351735197499279,-2.9397633644660255,16.879053083898157,-22.92483918133816,-2.333971999878515
6480.0,-0.9553689025528651,3.621298363953734,1.6935448200868404,-29.90239190426807,25.595940076303982,-24.308321832873457
6500.0,3.3768337208480523,14.851808211345139,-1.8172281215762092,36.384562443416804,-14.001920278930495,-0.25603030356664824
6520.0,-5.094750237034918,7.38404108595869,1.5602971167563122,-34.832108394303354,-2.536180311410045,29.753656415405175
6540.0,5.921302191440143,14.716277751218533,3.3487980925594893,29.940341490465972,20.093357365094732,4.414779929002637
6560.0,-5.981319935449337,4.405838268747867,-5.332429634061556,-22.319513309206805,-25.524838640732415,-31.75182665555927
6580.0,3.5548465725691725,11.012172305695898,1.7502975578803726,7.685136035752176,17.34182106544981,-8.888360593947036
6600.0,0.6098302952249827,12.52448805379751,2.252481286543375,1.6433519245091837,1.7555210986199834,30.67119731900705
6620.0,-3.947893575264929,8.968743525070943,-1.4479525659790835,-16.831434322837204,-18.49504801686517,13.415409150053716
6640.0,6.306818365853559,11.419650920010953,1.8896673466363925,22.118839169137992,25.679093197755524,-26.861060234484558
6660.0,-6.227110778201387,3.94713959714345,-3.7612572822836867,-33.155548998247355,-15.622024002635651,-16.407863166982665
6680.0,4.7532968955996875,16.195314270739754,1.5040641998925663,32.36210671760701,0.9987327478507474,26.559447778744754
6700.0,-1.8229275282584418,6.739778751903223,3.8474515863795773,-28.907860592537222,15.807218358351452,16.131325042184876
6720.0,0.19251910644385253,11.519701982060598,-5.091851846122348,23.564298304422735,-25.33696471152826,-20.2993957352428
6740.0,0.37578826743836624,5.538191030409255,1.2425445832889481,-19.553124878622736,22.979350560330694,-26.231005433937938
6760.0,0.5209666306612105,12.148787191827005,0.9207349228689228,1.7058055306653812,-2.326342411358001,18.04777298897733
6780.0,-0.5093704005840485,13.42773368258415,-0.53945190293359,8.313337717909882,-13.41758316249006,25.08260218740199
6800.0,0.30933176032850873,5.716730210283812,2.2479460074788715,-19.187983145222564,25.19025809674533,-15.103984929413851
6820.0,1.3592107419951522,11.962774209230064,-4.981902523879857,28.417362663294938,-17.52029575072895,-26.729405793914495
6840.0,-3.7702419287845963,5.909032617907827,1.4222989673425814,-33.72335368960393,9.060794496789809,11.600088969922435
6860.0,5.945972652295121,17.244291679887574,3.927634431147102,36.59890167951044,12.5070761973361,29.436815462606376
6880.0,-6.861393904131846,5.030933964013746,-3.507214737190955,-29.614946400305946,-25.71281416277161,-4.12011014972204
6900.0,5.628739764518393,10.356875494433107,0.6926738623742965,24.22659448049612,25.70169395928847,-25.751397015074364
6920.0,-1.8316742251317273,8.475127526478339,-0.9758696763682934,-10.762411372642866,-7.288155171994182,2.8519467018656703
6940.0,-1.1695379576168659,11.534239279835568,0.6493152932926166,-6.151838883041208,-11.795458439974926,30.658494367138218
6960.0,4.59330959275307,12.016176177703988,3.1618279581183897,12.17317417875843,23.911663281002983,-2.8735070934479614
6980.0,-5.656343766842075,3.838594907797783,-5.506889556702673,-26.315583126399172,-23.95215526005596,-31.616208206908894
7000.0,5.313745820543393,13.82714797575635,0.9872416682517025,32.01946658564586,10.295962431091365,-5.362164412535644
7020.0,-3.6269555503768087,7.159600478051727,3.4995249116603495,-36.53699194672061,11.218682590065738,27.21791788326811
7040.0,1.5520094049779491,15.218109389239688,-2.286728964808103,31.88508300155319,-22.89168651142472,10.759533184729616
7060.0,-0.4899437310012279,3.780617949645311,1.4439081058936059,-23.701917804560416,24.935611557051203,-26.905028513326386
7080.0,0.22194571092526677,10.707489983895421,-2.615352837553077,12.036926237149897,-13.78322880935615,-11.120424550673665
7100.0,-1.0956959804359954,11.421375020722174,0.39952733224202597,-5.018921307744036,-4.1041482150844155,29.43944386521334
7120.0,1.3052678155920008,9.538934683808563,4.383479008038927,-10.82709801334989,24.732427039938162,14.624357047385391
7140.0,-0.0067212968101135195,10.815395182357198,-5.197850606268867,20.7515101071166,-26.732319901093522,-22.962799967586385
7160.0,-1.9842437731096867,3.4669811546002482,0.8586954377186014,-30.849978131634924,16.125059046735736,-23.136332710042776
7180.0,4.865830826262601,16.120620832421697,1.7393266926268018,33.229368684121795,4.169696198119615,20.91158999541105
7200.0,-6.7168202516539885,6.930840746991427,-1.2461669587758402,-32.05742927223674,-18.311051395031864,24.30920510499035
7220.0,6.793149334529135,12.60159876721542,2.614604151792262,27.747806317203928,27.322088274008152,-13.070086456392229
7240.0,-4.3158364100720785,4.813633446615138,-3.9718792877575617,-21.050376465201072,-13.974908741098494,-25.920972041245857
7260.0,0.9263224793159291,11.810705243632084,0.28065178294784604,7.4688896545814485,-3.346799946300651,12.010566198859383
7280.0,2.676637516102642,13.041839753277308,4.353549245276506,4.425511391813055,16.315799422514026,32.14457315554959
7300.0,-5.319939157206113,6.683623448913804,-3.961909432530263,-16.50523351763454,-25.140375232507463,-4.38824393112443
7320.0,5.498727016490158,10.882481027699939,0.6694666600991985,27.575967636567437,17.98776232708885,-30.86236771192573
7340.0,-4.476109223051918,5.748082197195039,0.18228587128986842,-32.31306609600244,-1.6170358903837856,3.977049932168729
7360.0,2.2009340578133973,17.731146812246287,-0.34413081417452634,35.39916622143765,-18.700236052088787,30.787720404903787
7380.0,-1.2973433399831302,5.113456830956136,3.4738010505454646,-32.17002364427521,27.076846053271208,-0.6953010594679713
7400.0,0.6832229234103415,10.954354034846617,-4.480380695614026,24.880229805506378,-21.787076600693176,-30.676820000987846
7420.0,-1.5684584503356835,7.220552675454444,0.07755323073503967,-14.997886137322936,6.184441099182716,-6.022398428611656
7440.0,1.769316856888858,12.583653246025396,4.119938155761602,1.2603857857701155,15.76372190832394,30.696979955743107
7460.0,-1.4565333548758796,12.098386844919895,-2.8578331856259114,12.260801859953576,-26.975076285771266,11.546669339609346
7480.0,-0.03258686950961548,4.383190916046849,0.7535813073942881,-22.71746897263375,21.703250674878344,-30.30819257335441
7500.0,3.5372307857906247,12.957026294168312,-1.6763719923836944,28.367748518809254,-3.2823323975552414,-12.976350996503536
7520.0,-5.9972887576624405,7.269911607112774,-0.20159265059746215,-33.0735813559355,-12.895984368731064,28.622704368764406
7540.0,7.11841694853303,16.371918888781483,4.513085212657108,32.317778146218764,23.30403732252806,16.57063862429797
7560.0,-6.588716493034129,4.203482045135295,-4.597701836953477,-27.722889013391978,-20.810177375375197,-22.42981949560527
7580.0,3.4235065563468914,11.125436505623153,-0.5111431495386208,22.598427426064195,2.742614522095934,-22.094517870280825
7600.0,-0.05532283957482087,9.821669077277493,3.0856227811057657,-6.1075859126377905,10.773882075491537,20.1848234063188
7620.0,-3.41444146184742,10.93512777997868,-2.1202670691627272,-4.179783287671462,-23.058249780965532,22.48905917927307
7640.0,5.101065111327068,10.852707439035655,2.1998212464481566,13.958145695317562,21.940960155975915,-15.827467635944457
7660.0,-4.7578067890228395,3.9350891226220592,-3.473466076889493,-26.701285093624183,-10.518356560494574,-25.488709154216025
7680.0,3.3920665867722257,15.806936603141574,-0.43323573888746636,33.449542655697684,-10.47969487711766,13.06218709660428
7700.0,-1.9414662189854464,7.095686077510653,5.2943674896046575,-33.453565199987196,21.611908406662103,28.913364085617
7720.0,1.029143675968994,13.480138975007229,-4.0853107440277,31.336311782033114,-25.425848981432118,-10.905055675857387
7740.0,-1.6220275612424904,3.622030912691794,-0.24870336361602124,-23.29454860197316,12.410566466372325,-30.89060901116858
7760.0,2.275719393835618,12.041757094056786,1.4140728106365215,17.079639925135147,5.761444031722683,6.546986363208745
7780.0,-2.6628763111882674,11.917825717016813,-0.9907496229602744,1.6137900936573555,-22.441120854716193,29.449814762760962
7800.0,0.9067390663078705,7.843186866814128,3.143743347211274,-10.291355364828767,21.44237815572771,-3.570093381245499
7820.0,1.3713045802203985,10.550220528419153,-3.782224793712109,22.697941469585984,-10.568917970089242,-31.095105221035883
7840.0,-4.488629241458554,4.928061881023129,-0.11477987398986378,-30.290458311754485,-4.746343826349623,-1.1730446930418061
7860.0,6.816806812768612,17.383697477679373,4.528199054007984,36.0787620887123,21.344721654163102,28.990434592538573
7880.0,-7.683767078286562,5.509647608507852,-2.877726491134923,-32.51150973851427,-23.54523328892251,9.436504517572441
7900.0,5.349577516354268,11.042028494306232,0.3287693578939546,29.118483342425264,16.650115874664337,-26.968436077777334
7920.0,-2.177309546057779,6.058508257851118,-0.6006521498763797,-18.296972236388193,2.1538478089363973,-13.924041274344363
7940.0,-1.3417076954974236,12.968220443416232,-0.9899987917768135,9.780958243174926,-20.924897660760198,29.451537875202437
7960.0,3.7405796767115667,12.105852945575416,4.51176454241737,4.024187792328258,23.598862532035856,15.538364361723628
7980.0,-4.240810467704328,5.070152062705901,-3.839370853803385,-13.984048937265666,-17.8964801303236,-26.767435792733487
8000.0,3.7476111408292647,12.402915588524165,-1.3382271831301344,24.97610534815873,1.1554629989071263,-18.68813543077265
8020.0,-2.4101530616785394,6.53477788202435,3.8820642107400274,-32.944437730739416,15.906778263092306,22.682043622541762
8040.0,1.7210805300847007,16.607413207797403,-2.2545059394281513,37.61777149512227,-26.40430226533433,23.779708937152837
8060.0,-1.7255244498800282,3.551028111255781,2.128437647104555,-26.09542537876606,18.867367722348273,-16.75442542070538
8080.0,2.952151885878015,11.140589193854561,-2.125068470066809,23.643775740237928,-4.516779265925912,-22.527182732966626
8100.0,-3.87662301645178,9.10739443148485,-1.0570356250781154,-11.577936943300227,-15.301533349884874,13.470390569357884
8120.0,2.367977830064589,11.778825682962275,5.275511062693006,1.0539909772012284,24.635600121074276,24.950854516690146
8140.0,-0.8963964175523329,10.490459715484471,-3.6638097261947227,14.737771925062807,-17.469061033089694,-13.42763794419495
8160.0,-2.118787462832449,4.115086713590523,-0.9163526486185261,-24.718338768556375,4.459557311050148,-34.044793356542364
8180.0,5.862700090289635,14.845365231487207,2.0843408565912376,33.49829078315502,13.78887126149507,8.389272884954782
8200.0,-7.479132038779885,6.928012064087155,-1.7451647009918791,-36.90423057311841,-24.29319212182861,29.00043045273482
8220.0,6.878419120489326,14.41694697157632,2.9755139789920433,29.660984834730158,22.29302609396098,-3.2615443757600553
8240.0,-4.588789612306943,3.3080136188017284,-2.9454255074794373,-25.729204681986637,-7.007656099577629,-29.688135863035324
8260.0,0.7173742039232852,12.17437982213565,-1.5322012321052416,22.073580775241716,-8.078715510324283,-1.1028896113003124
8280.0,1.9143237168552116,11.674076098154476,4.925265983352871,-5.041336145507635,22.377366242490695,28.774283759732725
8300.0,-3.2295240550808506,9.172481369426444,-2.537973239397369,-5.545374239314995,-23.312589195161248,4.982134115260704
8320.0,3.451945685885538,10.22570776877035,-0.44008659657644944,16.91328647265103,7.720598972803316,-30.17122254461389
8340.0,-3.0146572524772,4.973761842575304,0.43675223372138305,-26.743611547550348,9.427221474260213,-7.27634896015217
8360.0,1.3817502794167624,16.883497396315867,-1.2835074136973825,37.444792354808214,-24.420482740518807,26.408188504456845
8380.0,-1.4648621717508161,6.2979723286784,4.42585420458657,-29.826329067495404,23.187788972937888,10.341810372096294
8400.0,2.487059663079535,12.378235226464955,-3.066755221311245,32.03605801935011,-15.215415424955049,-25.934617901438166
8420.0,-3.4689576760017116,5.466775750965532,-1.7422677749869107,-19.571737672747368,-6.043994962343345,-20.734670670556998
8440.0,4.099921389386698,13.407403715362097,4.434411535534123,12.599903217155111,24.93413581303248,21.434424564570048
8460.0,-2.9209913501823923,11.75186764523667,-2.0802375840023313,2.4208765560008856,-20.97407231604386,20.462024268427626
8480.0,0.04799363318722169,6.18270726721563,0.8237581269183019,-14.421172558559643,11.717658418995615,-19.76813289163342
8500.0,3.6256921334501304,11.195868472218958,-0.8912580369945693,22.48725449095378,5.4848034251037,-23.447886885799534
8520.0,-6.4238509514874425,6.329640984051908,-1.5380101868042635,-30.6050845721946,-21.21592513003273,16.515710533900016
8540.0,7.571385560520435,17.274694171723905,4.98126170828248,35.78651946854696,25.535930179284374,26.33932094413098
8560.0,-5.797174511714041,4.072629329712777,-3.2867052109025376,-35.84407904502198,-13.504637206776305,-11.72527498441984
8580.0,3.3961903698392923,11.497137315296884,-1.9940830396263143,24.651632436483222,-1.9999454609173033,-29.402334552227245
8600.0,0.06549768780412205,8.081842772047864,2.725265110835246,-18.486691155595214,19.984158194868076,8.187036579513935
8620.0,-2.451810544048499,12.784251171715594,-1.3792710927543759,3.58703412230634,-21.664700214990173,28.808219157816534
8640.0,3.0965986820930493,10.909041631427858,2.170489525592658,9.172544325599725,16.803701990944138,-3.7391000562863095
8660.0,-2.7806210004159886,4.159198503948428,-1.8890613634314828,-18.96051397461611,2.423725485578095,-30.224552758880975
8680.0,1.5144757928391241,14.125133905342942,-2.591478087811211,32.50581590668279,-16.04736893262843,-4.300881769412508
8700.0,-1.3583672556193966,7.332676860026393,5.537186124045685,-34.34086176674227,24.46593740059962,29.067452108766023
8720.0,1.9808288160735752,15.18030620147084,-2.191395754613311,34.27939231420903,-19.539922583835985,3.2610033467432036
8740.0,-3.798154178484554,2.8833433831271784,-1.498346242940303,-26.206062431540342,3.5406281999609535,-28.72836758728724
8760.0,4.630699177530368,11.952654570397016,1.384889978137679,22.590148569643063,17.768881281852895,-7.800772928439544
8780.0,-4.131651844085857,10.705264916381918,-1.4117913136656273,-13.261387749353052,-27.18305541402043,27.22146625879546
8800.0,2.307527231819091,10.640342406261885,3.7189428153888637,-4.876514085710976,20.810861988309835,10.849697243350475
8820.0,1.2230996639783978,9.873389157436508,-2.5118050482614587,16.22204752034171,-7.043286609768174,-23.12980543342659
8840.0,-4.884120601540249,4.648914026483608,-2.9653941231193484,-26.355389757745822,-14.060502757620641,-15.134458383148367
8860.0,6.89979019386224,16.29184951532783,5.209557446220554,35.03662851580991,24.83778296533073,22.99136197172531
8880.0,-7.446590702079456,6.559117172708822,-1.6079074507862705,-37.5053533041844,-21.848778485448854,21.55004798980296
8900.0,5.218432864476422,12.804818057336846,-0.43432119457822294,31.6654109289126,8.773520055581107,-17.967802114280577
8920.0,-1.7397824086996,4.0806106350026425,0.3097826966502381,-27.57896493965786,12.912441916331419,-22.067781024388207
8940.0,-0.6507573601487581,13.38661551683832,-1.5997443412033157,17.581088931312074,-19.166575335361653,19.31682007543269
8960.0,2.170762994952356,11.319011510492718,5.098349881804745,-2.422828687442713,22.28338667115286,26.532945490138513
8980.0,-2.3300718992877063,7.42902743199973,-2.3961090612434406,-9.324137959022169,-3.810323113362001,-11.753303676095125
9000.0,1.5833305749846822,10.87478745499751,-2.936892715331394,18.618258439236566,-12.460626398525736,-29.954205556906764
9020.0,-1.176389707987116,6.387520309840932,4.068623063112262,-28.255165017014356,22.823273437232043,12.679575626345377
9040.0,1.6085780955858229,17.13487656358464,-1.4754625805250516,32.80612151668372,-20.39350063197535,28.90908738590271
9060.0,-3.1805252460779267,4.018185244635438,1.0469967577738055,-37.36496676693034,11.415354540094222,-5.579146953964594
9080.0,4.568830073631573,11.700635329388868,-0.8304937103204402,26.113059566428262,5.808458914794106,-26.55443849687945
9100.0,-5.184816579490237,6.565648441541014,-3.0304665892459024,-23.580068145235558,-22.547059856903605,7.307396713456869
9120.0,3.897642986158024,13.729109186908378,5.633737986291485,11.321376101431529,23.785646908465065,28.72083379579861
9140.0,-1.163028153907837,10.295992803674899,-1.610642332060895,4.353972879738215,-14.010911886436869,-0.06527196420611237
9160.0,-2.776549782488613,4.899041291093323,-2.8359085779672526,-16.330681864555803,-5.730337328308467,-31.299020420914864
9180.0,5.812974138918216,12.660433755956422,2.2195299478125032,23.58968771801637,21.83891588340967,-5.911335387459412
9200.0,-7.001627107987366,7.555048958865059,-1.78021782536009,-35.60681899498404,-27.82443494995041,31.270266897294785
9220.0,6.038544519127366,15.702476301222761,2.9994379502997353,39.2785617871175,16.55920406850143,7.896834557753522
9240.0,-3.8205196852810768,3.0311130487381344,-1.483842380992943,-29.925235099834644,-3.124150969636669,-26.789702679265528
9260.0,1.2204468375943647,11.759720190344593,-3.481191213029755,18.732245005526803,-22.836928736556278,-15.424189184966068
9280.0,1.04218370794868,9.77862344021274,5.229573290921653,-16.810607063152187,25.690293424597602,22.712796972092544
9300.0,-1.7730706146919577,11.512002600890026,-1.300663516685679,2.3027562411962217,-18.780350020044633,19.99855793832273
9320.0,1.7537134461338624,9.70516820014951,-1.306197223115478,14.151357889453246,-2.1239884590738995,-22.208924399218564
9340.0,-0.6993162013485581,4.694850528725358,0.8177725650956574,-24.87868672095687,19.224262313867836,-21.575901348705816
9360.0,0.9713243478282827,15.705317980591449,-2.199571227488425,31.011183183531223,-27.635937792753133,19.682766396805565
9380.0,-2.218685550101586,7.0939083343797815,3.9952518031640927,-33.582480670358464,18.174614913293425,22.187756510944677
9400.0,4.071808265937947,13.24000797800129,-1.4283794737774582,33.184029475494064,0.3078714398783844,-14.558249853694182
9420.0,-5.797417153389716,3.498831027099379,-3.8975117166611626,-25.144812232545767,-14.631298587819753,-26.722096757329584
9440.0,5.435548394509503,13.999314043716963,4.12336939816807,20.40942806493063,25.18089052054385,8.58439506787635
9460.0,-3.3788908466749463,10.668160580166909,-0.6828605470059935,-9.445310311322102,-17.992230087753647,27.31576515948692
9480.0,-0.22540475338725047,8.10666166233678,0.11507910827736591,-8.548444075126437,3.5323623166530878,-7.314813677017854
9500.0,3.7649562092552418,9.61606358847814,-0.0040448618015365145,18.549322180809003,11.877626572095064,-28.284665474362253
9520.0,-6.425161794242021,6.575900363427015,-2.9140873534055776,-22.74093311259531,-21.3925588869756,1.2366544204130576
9540.0,6.7310314354513245,16.780782964850427,5.474456840271215,32.87138808722462,22.814269909334207,27.008769610254724
9560.0,-5.320587559083614,4.380956716231926,-0.6758940053209778,-37.84651506825683,-7.225296865561552,1.9480743259828222
9580.0,3.027874752279684,11.80428775132258,-3.2022323189178703,27.87288766671945,-12.69511533550465,-27.967882129149874
9600.0,-0.5626696975785244,5.718469801963946,2.857049355338187,-25.544424541192146,22.483285288003145,-5.660697652861452
9620.0,-0.9132318304181376,14.113661700352237,-1.4454990944469155,11.782014093038752,-18.80409079339565,28.576284243394827
9640.0,1.055834856673048,10.506921584136022,1.833173180444341,-3.7777171080843353,6.518918021312368,11.773998374612477
9660.0,-0.7829270854391286,5.707769205072682,-0.5794296385853739,-10.970965166397129,10.630577348806538,-28.6904413132112
9680.0,0.19765255702969564,12.013616220247162,-4.332963123632275,21.69480552154471,-24.166090580891613,-14.75764826117377
9700.0,-1.0375878065628634,7.382595512670813,5.1296605146772265,-30.240672026734053,21.9304588868775,23.792613219016953
9720.0,2.703201510871202,16.0426153590633,-0.3577639025827634,34.66938690679648,-10.519729026760531,17.15049036858289
9740.0,-5.135404748792777,3.226055783230031,-2.3551851226781273,-35.47040966095202,-5.901080478927922,-23.941079072716203
9760.0,6.079307798804135,12.188608237419098,1.77014501675234,25.98323641676044,16.840690329890947,-20.984656444670286
9780.0,-5.021081230975504,8.838431749015633,-1.9282868570282685,-14.671495070225145,-23.974380933890235,21.631575931037375
9800.0,2.627840973966833,13.175604737188573,3.621191229282661,6.060155983271844,15.35908960653454,22.732515997587292
9820.0,1.1293351195457235,9.113389769482067,-0.767940991254513,5.444871463377862,2.8943931736411272,-14.799846806935323
9840.0,-4.736520738513681,5.133166131809309,-4.608547160483662,-14.518806288123029,-19.603385572794057,-26.01036808964507
9860.0,6.592135393660868,14.688649175600988,4.5071370012541845,27.6352625778773,21.869031216680067,10.232720572631465
9880.0,-6.174186581900852,7.504960998028881,-0.39180841661513566,-32.50501988320631,-15.810897396756527,29.722428557621086
9900.0,3.8844044223337675,14.261181800093768,-0.857800215139654,33.82407886060324,-3.461400835081938,-8.13733663825215
9920.0,-1.708862298500904,3.0839310733245604,0.3107863187237249,-31.757030686494694,18.332149091417826,-27.048359882626478
9940.0,0.02656888748832638,13.290067718873397,-3.263760634928672,24.54713264043692,-21.27131363182914,2.7113312034561012
9960.0,0.5570449465736491,10.635472985312798,4.195291211241302,-15.165376330439962,18.523762830568927,31.439708012957198
9980.0,0.11002028912828986,9.799407911866629,0.269031463491821,0.4116132673726266,-3.6251052448205026,-0.06305922178716195
