timestamp,ax,ay,az,gx,gy,gz
0.0,0.05159647776751938,9.596753088247432,0.11405827422247655,1.1762097169289125,-1.604030408600545,-0.7418366872980013
20.0,-0.521054838153717,8.892646204824144,-4.480406168668495,13.425675299844514,-18.215713811452495,-32.3417236163913
40.0,-0.19052938389315185,5.970905798388818,3.176585156879085,-24.332220182122178,28.35221262874089,-4.861894954897795
60.0,1.716533074120874,17.057969968765903,-0.38222576925154267,27.78705274291329,-20.714203188433153,32.7313836097576
80.0,-4.267756876430867,5.553125418311099,0.8341747144396293,-39.15556173726594,1.8681726629284527,9.558883862292545
100.0,6.598461478540343,12.109639622168702,0.1543920903299992,35.663020413802414,13.286852566734613,-29.944618932959514
120.0,-6.708954048402224,5.03351792007186,-4.495424623583629,-26.048080187751587,-25.07361770395228,-8.38170540138794
140.0,4.854358258282829,14.450332303523911,4.54542990068152,18.256801937713877,19.411458952181707,26.471881447450226
160.0,-1.7758762269316313,10.29477697425825,0.4028097573153661,-3.8898123557602853,-7.610661910935072,13.265712511191587
180.0,-2.799992192277036,7.05015829173239,-3.432565272180976,-9.034406386799217,-15.258786984634185,-21.020611246695516
200.0,5.157723642118864,11.051854846681323,1.837362009928018,16.7715674630819,24.487574784387373,-21.832149071914905
220.0,-6.473815000368008,7.5048208656792825,-1.5656981125933307,-26.822985595264967,-18.85468540303234,20.20721413788079
240.0,4.856926027083489,16.75972302135794,2.458254919910358,35.1520254671967,3.039117826140223,27.76792412402878
260.0,-3.2116913689259174,3.554416492445516,0.18372976763567045,-34.65415171309616,9.889013913292729,-20.465334658673772
280.0,0.9871120918168053,11.916143086107134,-5.372009554347223,29.373590640941032,-23.17371012416841,-27.125906312472594
300.0,-0.09581670767435717,7.555878355546106,3.924577158664968,-25.338187409823796,24.985242952431307,13.10603124052641
320.0,0.539169779706689,13.610753334066748,0.503180477183578,11.183124208883596,-10.469416091846652,27.147717353311627
340.0,-1.098220579604315,8.933129476075822,-2.063850887609234,-2.89946263656097,-11.098653950214457,-11.736304819042969
360.0,0.9993075657524652,5.516276730504547,1.005929898462498,-10.910003330131968,21.025187371207426,-29.79442922235107
380.0,-0.0391001880315463,13.687176723757178,-2.828308094900536,23.50022630658721,-22.430136147115906,9.83391179643333
400.0,-2.2138274712338806,7.5040900005365865,3.640674347655237,-28.658543463109755,10.379334539026276,32.29691544741308
420.0,5.28887557392974,14.608801629733502,1.171653025885725,34.42010484481961,9.420272079543395,-0.5055794773518427
440.0,-7.109072933302369,2.675100179028033,-5.126425023732808,-34.4121964055397,-20.52112369459284,-28.04183223391557
460.0,6.377090950850066,13.491059984782531,3.11140263805754,26.04972627042194,22.422551538597652,-4.59521593636513
480.0,-3.593725522315279,9.720579196337548,0.30170885025980765,-15.813588669905439,-13.481677588302203,28.790864145450264
500.0,-0.23343374408227174,10.89768315283431,-0.28648700790970194,6.493604373838695,-8.008927440115716,7.560257290972286
520.0,3.730301421332347,8.46529461379304,1.0172814509703278,8.22407169561285,18.15591383403487,-27.325952787359824
540.0,-5.710601686309031,6.058205236123245,-4.1492748448743555,-16.33926006362249,-25.657327986009545,-12.582877951923848
560.0,5.365993907160854,15.996290480834146,4.133478662449857,31.938412134571635,17.41939566950694,24.919881917081884
580.0,-4.120574438677998,6.232100343184759,1.944131177433841,-32.05225889702641,2.294897291888617,12.773891837581473
600.0,1.9262313333786758,12.720066665009325,-4.582424979151513,35.8410415900904,-19.661039234577768,-25.405340046745966
620.0,-0.9884163829924533,3.7328485515993606,2.3230229445531467,-30.80257814986313,28.15779605797067,-16.859516811546595
640.0,1.0431716153884074,15.141501991427688,-0.822210954823859,20.42957803032185,-20.10592376748903,20.59220365073242
660.0,-1.5848167828480897,9.921345287574146,1.0811486179815017,-7.3888575748635805,-0.20381426798594057,21.66090057767382
680.0,1.9155584276056605,7.860695946607925,1.128430337546114,-4.069233477850654,19.210333431030463,-19.74088701318839
700.0,-1.0761983852936823,9.942125976871408,-5.044912986640527,11.903939073808887,-28.644662421049276,-23.672331976417944
720.0,-1.2010118869850137,7.508581560744793,3.5736713114724745,-28.116579066609415,17.70010551024944,13.237315792928696
740.0,4.1928618070441255,16.595001606853355,1.900541192228441,30.168816493950285,-3.7564059013515827,26.065399177698275
760.0,-6.556817478838954,4.246911770094343,-2.628475423379924,-34.77355340015224,-18.339999943323136,-7.41766316136294
780.0,7.459670045322546,12.450556596367488,1.4958105377864752,33.13927301285105,23.22519514070422,-26.444776829710516
800.0,-5.536372591463339,6.778684845472341,-2.5574664492756085,-24.419353947272313,-18.833585401860578,8.21029907254831
820.0,2.3918331302063507,14.414357100728243,2.4818271053437457,13.363798196072484,4.157621677759883,23.405457455508973
840.0,0.9772131681329599,9.007002250022133,1.7045367940055776,-3.6315578696287716,10.91787676094046,-3.1080105425237767
860.0,-4.005446615713152,5.789352115464198,-5.308350057079607,-8.509457473596527,-23.849065689135568,-32.77402846080044
880.0,5.119940438187086,12.405791899144608,3.150990878800461,21.720036858193808,18.528599378848657,-1.824253719016049
900.0,-4.645924063417593,8.307205892207632,0.7771566472722162,-30.359714785192157,-4.429667710018744,31.653029089381683
920.0,3.313222573743663,15.394113591656437,-1.1462370445754093,32.19916799771343,-9.584884137975285,6.15496515636853
940.0,-1.4158684412616505,2.5288194118116345,1.3900157785563831,-38.07029618634829,25.006667248981746,-31.570294950485692
960.0,1.0655424070974027,13.147866904318022,-4.009358891433498,27.576348169106623,-22.839160673930586,-10.708395858607215
980.0,-1.6898376397251518,8.81325308128333,3.1349545145911253,-18.48337027408647,11.946283788617421,25.79001229488553
1000.0,2.364395191999639,12.18082587558669,2.585183400090137,6.399969824694009,13.074483931148048,17.287948689648562
1020.0,-2.0397884116016534,8.380451216043115,-5.358273721423265,1.6117330936445275,-23.13992010882813,-23.746550982698388
1040.0,0.5286789781251559,6.291927141354807,2.851737987299512,-13.237261734769037,22.672337958828223,-17.938110316267117
1060.0,1.7039473385214494,15.137893702173166,0.19089691531327213,26.125961757207996,-6.900253669911312,21.017503726142344
1080.0,-5.220311036655338,6.898047833542677,0.41285537838377573,-31.920436395453166,-8.062768791980599,19.87195296180088
1100.0,7.2034150625136295,13.09729882819201,1.4494863256827728,37.321300414460374,21.821438940876547,-19.06277359232279
1120.0,-7.129882632286274,3.298193643218843,-4.7362373489415415,-35.49515935201204,-28.452257883976998,-24.670568640608955
1140.0,4.6046096123943165,14.968250095520565,2.9294356210031594,28.642500311694636,15.532360764592095,16.928201297909414
1160.0,-1.2700554259652475,9.999877006542908,2.6283683305642334,-11.10197698943331,2.4068511112385513,25.939284594845454
1180.0,-1.9332957559167632,9.140865102006023,-3.7410434530665815,6.779305200147423,-21.206625638570383,-12.238129140439634
1200.0,3.954654108935506,9.093418094060015,1.7752369272480644,8.245242280756859,24.298195222386717,-27.97238257408162
1220.0,-4.487241564821334,7.829956650290213,-1.4188613972877357,-19.435100739991167,-14.533882883168037,7.480680034929073
1240.0,3.5721782692999184,16.053684181856926,1.4320085439637025,31.137816167078462,4.144765032246653,32.02326156584488
1260.0,-2.221499780780927,4.462815592492466,2.0708601772312614,-30.93367614520664,17.774024349846744,-5.935829990768662
1280.0,1.5138864992282397,11.981338035796632,-5.59851958924433,34.5014232756397,-25.105221961474964,-33.08584806877029
1300.0,-1.4540763962107484,5.480647240962541,2.1564998872711563,-32.490905502910955,21.478786493013324,3.3073109892033363
1320.0,2.6632269109486026,15.07272931473711,1.787081391725329,22.18575969519527,-1.6349673763875434,33.08693272756312
1340.0,-3.336386201497816,9.042237716119505,-2.37576531360681,-5.337842145435978,-21.3684922080203,1.7526610433547902
1360.0,2.3080229533086936,6.494039453873125,1.5430285241772124,-3.323770769877587,21.936923812264588,-28.35356613858653
1380.0,-0.10243144283849616,11.625323760293467,-3.1837604476039383,15.40009110805817,-18.058718805262743,-6.555529154288051
1400.0,-2.9941675932441343,8.234426428817837,2.490071333707587,-25.406666339642044,1.4253115150063924,25.90343106805364
1420.0,6.047031022715873,15.862510990597888,3.1704190204693887,36.53804920642244,15.067383206859969,14.304445024857584
1440.0,-7.675254468585246,2.739620040004976,-5.308892588867956,-34.306352224490524,-27.65036572586551,-22.085330978479472
1460.0,6.3357202578124925,13.076543387741735,1.7194544128808944,29.347811334294672,18.844473662472854,-14.964003637685831
1480.0,-3.6558934373241923,7.848855430299812,1.0352568801682158,-22.73825676901816,-2.5479203121305343,23.9821237027464
1500.0,0.5722272951958312,13.24417242714837,-0.662343739985897,14.836466259690878,-14.782879711972303,17.196122612987914
1520.0,2.8144718357305845,7.776873916526658,2.458008729370275,-1.2585694003907943,26.137299010437683,-22.854196862050372
1540.0,-4.343704913934736,6.30106583692488,-4.50190477328462,-11.55874204230738,-21.175661725781442,-25.955945513237108
1560.0,3.703173187797863,14.71954354439364,2.2984596954889884,24.900879941989594,8.05062959039589,16.300943228320442
1580.0,-2.3697139618914607,7.370716325422083,3.3696925472852306,-31.310291294474844,13.141600209994019,26.305341508588693
1600.0,1.4182897179445346,13.570810508182891,-3.922201613552623,35.5194800824357,-26.09413361701324,-14.912494387900894
1620.0,-1.2723776584593052,2.6511451631821754,1.035340644010918,-36.45419408903581,22.826308811446385,-25.726598916849
1640.0,2.660781204270131,14.896350686151463,-0.5332749633238151,27.03466575333723,-9.070071509633765,11.469613155261673
1660.0,-3.4553639783644106,9.273053548846105,0.5755663900982827,-22.46969189473741,-6.954105393600395,29.944700856813498
1680.0,3.835567218392663,10.422973831855295,2.989849854849294,0.8579736438283652,25.249020763486794,-9.143836311426238
1700.0,-2.2493038013978977,7.868971684816626,-4.969955217206569,6.310147436640941,-22.83273059976539,-31.576988010753144
1720.0,-1.0639090129248314,7.5630640166318175,1.581625686212617,-16.86308498581135,10.23448087429953,0.6572252173626234
1740.0,4.464565220751849,16.265229080203543,2.744397900164339,28.41312088223664,10.599778681267685,30.745292913479478
1760.0,-6.515753172904722,4.798882222704646,-3.155985492286223,-38.11714824296356,-18.838550203570094,1.7336593267996332
1780.0,7.268167313088227,12.0461502182443,1.1268131691975367,38.68028236418158,24.512966122970997,-27.899739267728286
1800.0,-5.583818182097122,4.539496227368365,-2.3140751901021424,-34.09618158553348,-13.633929826019392,-8.066472988068265
1820.0,2.3358163337772435,15.210771226556393,1.267911082655027,25.601539806133044,-4.187422087019455,29.488133697002226
1840.0,1.0320737326711897,9.325836463459012,3.9266536390706843,-11.679471056991222,17.793509177341548,6.191165176564871
1860.0,-2.831436118198046,7.864316897758388,-5.275356480635869,2.548296376071359,-22.701320900391618,-26.467369032786618
1880.0,3.1801463520461386,10.169387406346035,0.8589001610933098,11.80678330524368,15.501020273855428,-16.153982364762523
1900.0,-2.7463652176724707,8.897898009368747,1.735907957959897,-24.89055019820971,-0.13819679420431585,24.508701470358027
1920.0,1.8515992321935268,15.87455664162862,-1.6331963101186744,32.11162158907153,-20.009717287500578,20.024908880689832
1940.0,-1.3844397271420863,3.1012062946687453,2.0989213377952813,-34.35293484456192,27.337708387713008,-19.33153326149077
1960.0,2.2699393970529136,12.682341961682432,-3.465011909482171,30.250274340845678,-16.04683154785849,-24.130355683274978
1980.0,-3.8365423511611683,7.340714744696284,1.2326663566121474,-30.936731056981365,0.27283246131074895,20.387599030975185
2000.0,4.532873733181936,14.592396535019017,4.0346201885758015,15.82516212734534,16.124555783357284,25.597227762434947
2020.0,-3.7122292937269177,7.683397566368297,-4.511612104298599,-6.280633379203494,-24.668470013300823,-14.851749629185925
2040.0,1.3124891970887658,6.601437722490937,0.6786212821450479,-4.910057260885903,19.598537377399676,-26.22657506050897
2060.0,2.4403827031585217,13.21033280763828,0.30387647088300784,19.069396265041014,-2.936423406046126,11.69212896557458
2080.0,-5.201238624360683,8.348841017751665,0.12990896404719993,-28.460010408787355,-15.499281325450168,29.278384409672007
2100.0,7.389016441491741,13.81972600244905,2.945497127546115,33.326911461354776,26.57835416338569,-5.136677813575586
2120.0,-7.0362074744623015,2.178301643818743,-4.730612687287037,-38.098024440841044,-25.159800288447926,-33.394574124869635
2140.0,4.599894414379747,14.501402637314758,0.6085302412252953,31.160868999170845,4.014356772145259,2.9722867912303146
2160.0,-0.9940544938156473,8.837000272836267,3.873930431100851,-24.156870179427557,11.792612376630519,31.220495203162592
2180.0,-1.3852819320186567,11.229417662649402,-3.337551737137728,10.453206900181668,-23.606717044919808,-1.3024620583447477
2200.0,2.8086895317292706,7.332247194797446,1.00439447523961,0.007518269049590298,19.84065026779781,-32.822365392298195
2220.0,-2.3153642859013477,7.667983021442328,-1.3284248153402136,-11.613725578242548,-5.710272991534099,-3.778441187982203
2240.0,1.3862834351342346,15.76294166801912,0.08774119355208551,20.498269180420237,-10.98637370143867,25.540472135860647
2260.0,-1.1308732273662605,6.43566604254676,3.746977647210908,-33.72863479048187,22.02180920895839,10.573784055314011
2280.0,1.9909152837626178,12.703056150741055,-4.786896067867314,29.04458999637752,-21.661164591802777,-28.01367578717698
2300.0,-3.339277353766364,3.6298653181553835,0.21239822056510393,-32.49737681868396,10.116606648999428,-10.871745620740805
2320.0,4.862169150870885,15.924216855374318,3.2161322835462594,28.49361361744141,3.847135602864327,23.449139305830606
2340.0,-4.939565090481971,8.509491528425775,-2.154959203677349,-16.670720895456498,-23.277735113899322,23.903662372135855
2360.0,3.777236461034539,8.466326156854855,1.4077891471902297,4.198188667981927,23.86716843154581,-25.887317687704584
2380.0,-0.013527301955497006,9.173307001619625,-2.7348042093697873,6.107889187314315,-14.821351375333492,-19.346350587438454
2400.0,-3.250606295351544,8.912470961904413,0.12542723443801862,-18.463459429965038,-7.831965348191849,21.67874870156159
2420.0,6.2646722531631145,15.954958430112415,4.529122451610157,30.064735431508673,21.60258885817305,22.596064257112328
2440.0,-7.229887449586162,3.7540956187778414,-4.164574865361136,-34.19238271058269,-19.959141020648286,-17.50160039465704
2460.0,5.70823566836153,12.496654326409281,0.16276756895350153,35.887313201572454,8.80332607932419,-24.124347499716574
2480.0,-3.3149611255455085,6.583644776122274,1.6444342153518097,-28.397571618165983,6.750851135466103,8.470694825071995
2500.0,0.3792392374237067,15.406452712126116,-1.1989098053900962,21.2696363141469,-23.325320404535155,30.44670731161262
2520.0,1.4742022485477349,7.351330198032722,2.8369630986761587,-12.747827780028755,27.867420388196578,-8.729943436446728
2540.0,-2.4264899922418315,7.367729577120023,-3.98065568336705,-2.4938240636556337,-18.86690862880016,-31.935893399823755
2560.0,1.3598117040275413,12.122382514372235,-0.23533159219026809,13.00413610115391,-5.130616230759857,4.066414988306871
2580.0,-0.776404175855759,8.441402111590616,4.670847422113233,-26.193333042938516,18.996032264423295,28.1766044072165
2600.0,1.3274446576571044,14.657291795480859,-3.5219055739003777,29.672728401544624,-25.420101291228864,-1.9252950927319898
2620.0,-2.4795516232675876,2.198503528912185,0.3579626812820036,-35.8373245802132,18.240654467229373,-27.846206831174165
2640.0,4.41356709622111,14.031092806894645,0.03718716517043433,30.077665693443198,0.2964432144972525,-3.9330221247762487
2660.0,-5.587664411356673,8.283064403822006,-0.16893126429424382,-28.72437980051598,-14.714009427004495,32.63116449287786
2680.0,5.144589759645239,12.829068807041146,3.87087058381035,15.987962426355386,24.921445803465136,8.328113097727776
2700.0,-2.5517957326052083,6.911978400104309,-4.687385712025683,-6.372434178831402,-18.235842792212626,-33.38702021758388
2720.0,-1.2283284279291462,7.545224149253857,-0.546885103142353,-7.080505965342585,4.251754883557865,-15.503234781160057
2740.0,4.362024454199469,14.602405922118372,4.171675896769321,18.95149479203344,16.081763455169245,28.95451780152202
2760.0,-7.0190180223289,7.18639139425245,-2.313290991756832,-28.347189509579255,-25.22755438497368,14.208362344897113
2780.0,6.973847013446122,12.778987262522268,1.4325633993186104,34.479319793485985,23.068742734473656,-27.594605153316717
2800.0,-4.6603922547236145,3.5021863924241097,-1.609961011770491,-32.26633209927458,-3.645563479384602,-16.463778666794674
2820.0,2.002030617476953,15.975084858471867,-0.6975262027875861,28.978679962845597,-13.540041336251598,23.08667644306084
2840.0,-0.015945368367005303,8.71456368960271,4.897690635913415,-18.36945471109204,23.71608040886661,21.05678676563579
2860.0,-1.1684046076796333,9.545200846593122,-4.092388601608803,10.093392554753283,-20.459198520688357,-18.825845562969835
2880.0,1.0486676270756163,7.888844808308675,-0.737785100640223,3.549266755694906,5.232894793874461,-26.652569287769516
2900.0,-0.6027957046371468,8.677213618673457,2.135191373627839,-15.334209435181252,11.86644870837234,14.859028290347704
2920.0,0.3470593191244948,15.83074634075425,-1.3931778820714737,24.283772862611833,-28.314659734069295,28.4708955096692
2940.0,-1.6405626881832918,3.606686484753316,2.670165339949071,-37.478682766522844,27.171103825109867,-11.741247376657425
2960.0,3.6377181558040506,12.263388415206173,-3.2113469520030153,37.831044540061555,-7.772202247413632,-26.273458924804793
2980.0,-5.422634854828799,5.403457976763792,-0.8072567720669339,-31.706333853617437,-10.20178113475581,5.892475511733497
3000.0,6.230499252034134,15.792543513317534,4.840595329481258,26.623366561259363,24.53559036938192,30.57757187298238
3020.0,-4.787436606516926,7.536554425651005,-3.2629012322927258,-14.786973224404207,-20.562224866161806,-0.4862980850061551
3040.0,1.5929952531081268,7.4787319035711475,-0.34449853389994434,4.546549367901111,11.744571123195861,-30.775173985609488
3060.0,2.043716846508895,11.221839643324188,0.9090421447998006,13.129246041730138,8.048762821494634,-1.766901745821297
3080.0,-5.219206093751967,9.30956606657695,-0.7785525667306873,-20.732151571701376,-19.65905904216944,26.24598111442684
3100.0,6.526981287015524,14.3900187846527,3.801387223323554,29.248236124949283,24.79590136108885,10.438354293399923
3120.0,-6.115985409986949,2.6059788095958285,-4.008358150908468,-35.246657665107406,-7.945561520822297,-30.455293938154085
3140.0,3.9137865479359757,13.99210637813287,-1.6673761653429615,36.31991340705453,-4.76563579377893,-10.9991627622749
3160.0,-1.1886819856304252,7.620482394200618,4.535145963401152,-28.601764909094907,18.9088196215087,27.927244032967266
3180.0,-0.16584410557653753,14.007608886347453,-2.472083978497122,21.59321480960734,-25.000501008403383,11.679757580605608
3200.0,0.47223402033456446,6.5666582524643085,0.4590464275623026,-9.741664943741906,15.169759311447157,-27.260971571793988
3220.0,-0.34722969870065185,7.547413978257422,-0.7466093268893191,-7.1621014163383725,2.505045474164297,-19.70874429448789
3240.0,-0.33876801692143294,13.83018410116564,-1.3287290486876229,14.527279477803681,-23.94605643006103,17.844310555569493
3260.0,-0.22378448298609654,7.411747013314113,4.99572545090891,-25.570333487585962,24.207092702128627,22.105335627362827
3280.0,2.1460559944939646,12.966774969889459,-3.7001830822271513,29.214787949612216,-17.016289935614157,-14.601408646169347
3300.0,-4.656843165787779,2.5188173673037006,-1.8321727187843422,-30.719194953090334,-1.5200349843024359,-23.435053789700536
3320.0,6.281410584287493,15.650474507732495,3.3693932531362107,31.84267576800985,11.8080697511279,14.676144053436625
3340.0,-6.345713265781375,8.501823002197346,-1.7465760837880016,-24.622709237338675,-24.51223600403452,28.394270019687678
3360.0,4.12704241834106,11.139767551488097,1.975889670810527,12.330640959104388,17.652123994070507,-11.32121386514634
3380.0,-0.3895464068286768,7.3115955882149635,-1.8755263430663185,-4.990011361947626,-0.1538748094359892,-29.091216981158176
3400.0,-3.0694814046641055,8.99382015116311,-2.2081902930266115,-6.50220095772748,-15.053625563425177,7.303461919684884
3420.0,5.715585380519044,15.666211590397072,5.191697278332905,22.33887750914603,26.424189373380678,29.18404565606238
3440.0,-6.2291620099352425,5.289110382774394,-2.9989128465971344,-32.9680116959739,-17.472379784848826,-3.1052508721610774
3460.0,4.974380934103076,12.102363093152073,-1.3024687410148936,35.488880990837956,7.057553243301195,-28.934115018632763
3480.0,-2.6975321419885656,5.042974240349836,1.957435131175017,-36.76709572239098,15.253766729471185,1.331614717109542
3500.0,0.8237103842393577,16.05109587247665,-1.7638358738053057,29.73406831682434,-23.55543051366328,30.850610498802016
3520.0,-0.3316787729520796,7.624008765460751,3.3248582611445467,-17.890479620558335,19.594957672248874,9.332090396387091
3540.0,0.026782947872005497,8.336756203763748,-2.6568131234428245,5.404851518573099,-5.535007058223929,-28.501859840142906
3560.0,-0.4613555274597414,9.713358240085944,-2.6262274504093197,1.7065020476888657,-12.038547655792588,-7.804227311685171
3580.0,0.6811773933031754,9.64098016704073,5.453573671865989,-19.026308374378043,26.748779262720838,26.394757770196026
3600.0,0.8081499959876673,14.767031205843747,-2.040854597233649,28.47117654229222,-20.36858750686462,13.788387326413442
3620.0,-3.6890886549590203,2.855242016960964,-0.09827472766337875,-30.071435421110795,8.851113724133647,-24.85537575547538
3640.0,5.547664690823117,13.28591364190438,0.24819461865325804,37.27923554330886,11.116432440105559,-18.799225879837167
3660.0,-6.939599063282242,7.311243093845037,-2.0626156720375115,-32.04312298209468,-20.67935990612987,23.45549044577577
3680.0,5.809093513392671,15.030133548823384,4.790917975958818,22.217964135515864,23.307483066124192,17.99883391367303
3700.0,-3.016094190250637,6.171078327045371,-3.0305153193550955,-13.804631519234011,-10.480114804172281,-19.492847130314072
3720.0,-0.5030262887175254,7.873611721693667,-3.0126934547548356,2.794250829639315,-4.284648859586333,-24.204186310161703
3740.0,4.112581232983362,13.257193167997638,4.320058191398309,13.400017757800116,21.922860713898526,18.451061394185547
3760.0,-5.887487911535198,8.612969822938602,-1.840939517046589,-21.588868233840135,-22.980880509606013,27.46410174276483
3780.0,5.345810666363172,13.176044158286514,0.9978462995774009,29.60999977044606,14.973270630230282,-11.949633020165876
3800.0,-3.7325217549937046,2.3766882642857854,-0.9360365353920019,-34.66296951947233,1.6907507767788368,-24.58597249614611
3820.0,1.4941572520585709,15.358161018372192,-2.2682198014559973,34.86794306351049,-22.631490741737434,10.454674443487626
3840.0,-0.7524796663607772,8.346670889800597,5.224167058811285,-26.614560906043504,25.23085162814436,30.28932730658016
3860.0,0.6137082475227847,11.966626422114395,-2.477715226486926,21.25453892995018,-15.166339975549313,-2.963319831457713
3880.0,-1.147336928703816,6.2523360848967435,-2.688073672778853,-3.5356555927647095,-2.847642948788388,-30.560274125635665
3900.0,1.6287449504613636,9.152034982699622,2.6112394222219284,-5.398705365624909,18.78440383035029,0.6659673491764929
3920.0,-0.38045896683597547,15.249785332568253,-1.5867030553473516,14.397697232264216,-24.971010886798613,31.24375706069635
3940.0,-1.263819341695441,6.028140932335749,2.756644465032851,-25.893041117130373,20.31797044026643,5.931095197937889
3960.0,4.437178400438651,12.061016180408972,-1.6741786926424571,33.950002660096786,0.7212551977464389,-28.53965181096224
3980.0,-6.497082697566813,4.184656833192132,-2.6944019771357377,-30.937177590468554,-20.038004883569705,-7.670137592832738
4000.0,6.917161845046258,16.609206524996218,5.722685126869519,30.872214878064547,23.707431335977965,27.529784388407553
4020.0,-5.0411723810236175,7.251998697956382,-1.7084400511999491,-23.002998220096426,-17.603223937782644,12.237377281005077
4040.0,1.5907813689650214,9.218575545508681,-1.72542475960164,12.298114816854183,1.0942270176815754,-26.39303694750202
4060.0,2.279933657232766,8.254632161235385,1.4108365299274566,-0.4352640191470929,21.9047167822849,-18.658034552833563
4080.0,-4.345431289291749,9.831017157688636,-2.061136498475432,-17.54261614286999,-25.177761898076096,24.55721199953968
4100.0,5.550013873613084,14.549390362568841,4.335961121339289,24.07025452402959,17.05245814085499,20.45448755248511
4120.0,-4.588216059277493,3.6224898010315028,-1.8915393433965166,-31.509610872305316,-1.967030465153271,-19.637740208965646
4140.0,3.1329530616790344,12.626521377018001,-3.114835373912674,35.69896054261371,-10.097257213748815,-22.249283590678168
4160.0,-1.297662494164221,6.368225678292534,4.646557455404621,-31.298577344504658,21.831494436650814,18.97519496333978
4180.0,1.101203466936473,15.990140048309463,-1.141337485604463,29.759201517467222,-18.73177292232685,28.444318470447328
4200.0,-1.4636865703670219,6.053158194668612,0.1474068045042986,-19.59424938121321,6.459687036735485,-13.946518938926468
4220.0,2.209082587320697,8.401201134329723,0.3187465526101545,7.67769662396505,11.454112740263525,-25.672279027075376
4240.0,-1.394803146762634,11.469655099314593,-2.507003663453882,8.633206593915776,-25.15922013697512,7.817892060226745
4260.0,0.3227020704039755,9.690989730628159,4.630353916473036,-18.200663444693387,23.635243589223474,30.957885262424146
4280.0,2.5444887890663455,13.242232306559222,-1.3685174431736007,29.848324840601034,-9.881521955293499,-4.69776947885137
4300.0,-5.602652656711084,2.740517989499085,-3.138928559669422,-33.48915569896912,-8.741709630545788,-29.716282656934457
4320.0,7.202735464982765,15.144341639096325,3.216550539542158,35.81412621693606,23.708360333248045,3.996740562501516
4340.0,-6.715158927139066,7.8292672598959685,-1.262128652817641,-30.528892478605478,-23.596422300707523,27.62916284271742
4360.0,4.230950938391367,13.370664375342908,1.5292307969245573,19.772411267732675,11.505502721953839,2.0904376257408206
4380.0,-0.6699985628354866,5.5271056038392175,-0.7800415301421488,-13.424993228437925,7.684704886716892,-28.933168956720863
4400.0,-3.15085036743895,9.441137423928673,-3.603018877765895,0.733504683957177,-22.591806518716204,-4.599233325902025
4420.0,4.904709009166133,13.935066839838296,4.804039878553616,13.608859112772583,21.840372614969326,28.644468193612607
4440.0,-4.933734085610457,6.956321654744679,-0.8464341904803183,-22.49431904070133,-14.137539124807375,10.776712061892063
4460.0,3.7182607371817262,12.08034525748351,-2.995272159556997,35.63033614442397,-5.636286695497076,-30.46337379226818
4480.0,-2.1248207091520546,3.701777952826425,2.081931086316347,-33.64593388434943,24.32500898462193,-15.789220413978374
4500.0,1.0882425240166207,16.813556063203674,-1.9659482730372373,34.86242170441344,-25.05998880633642,25.032629043342023
4520.0,-1.9468327856944732,7.498565968583839,3.2635407620935433,-32.219799096109625,13.300916844503885,18.1070534449738
4540.0,2.659292866089855,10.10634902242207,-1.1584470237989515,15.739760782146922,2.4200190340136256,-24.135498820221613
4560.0,-3.143946962228492,7.343935622842889,-4.317528174940806,-4.222200448495957,-25.60803279105491,-21.625522487998705
4580.0,2.094301889380848,10.564964527477127,4.712471407208031,-9.044363887329535,26.860716662550892,17.05553638382478
4600.0,0.6503598448765465,14.881569504984409,-0.19699026241860335,20.043364395086943,-17.18839188674345,21.576463120159715
4620.0,-4.284055540262652,4.201437781517704,-1.6280454340606696,-31.851206510646936,-2.863119034835679,-14.464322207736434
4640.0,6.33780733170267,12.436543086088696,1.3241290916429884,31.501633370576272,19.296777741001417,-31.95743712325141
4660.0,-7.648821441621845,5.435837823073998,-2.580265169160321,-32.199074593562855,-24.336763628332527,11.881183881287248
4680.0,5.900978599028382,16.52528152197632,4.785413358197926,28.88354644751708,18.23311905898575,28.939604434038717
4700.0,-2.93217738867131,5.999750886156685,-0.6418445768047272,-22.171384058038615,-2.2259369521443224,-10.03793435947336
4720.0,-0.5400203005306998,8.590927675771335,-4.042344023919572,11.939823611386043,-16.197113358681133,-26.993301283870377
4740.0,3.728053532695809,10.501821723456755,3.8902454036436924,5.016295895892741,22.18429332386862,0.9076729327742292
4760.0,-4.887060360165548,10.382296983161982,-0.9720727817110307,-14.88807281538887,-15.081956593641111,28.584847259869147
4780.0,3.6859304991016804,13.740085844015733,0.39421335137667535,28.572088948391286,3.6366681440449873,-1.6803921274273468
4800.0,-2.2942212836262774,2.6105013614003236,-0.1258391916615198,-29.5018622431433,13.343571666332497,-28.52827414766808
4820.0,1.5051573123352362,14.636107825546748,-3.4509696359032818,34.19287486223469,-24.643651082506178,-6.4344626269635015
4840.0,-1.8641517412657138,7.62392587859348,4.555212385830798,-33.80058684218337,24.9136854191123,28.833805557668303
4860.0,2.8330377142270633,14.294738113568572,-0.3841596299506983,27.744871779396483,-3.9040997214112014,9.644354011087652
4880.0,-3.7323594375270868,5.22471836119111,-3.5556887886933524,-16.556463634803986,-15.920803820843078,-24.692525697797805
4900.0,3.056282508456993,9.284760859157728,2.7418702407345767,5.870369015254723,23.40825596949918,-14.081217038023693
4920.0,-1.1706145632215592,13.663187601706152,-1.7096566677823455,6.595004085249041,-23.704836850853834,24.023418748043802
4940.0,-1.837916793190142,8.324648476560993,2.8678093137254503,-18.12077068233695,10.10622342764808,15.893718790533763
4960.0,5.076148208980339,12.186636954641676,-0.24823146830713858,30.40682612640248,7.779336789172782,-24.422295842713314
4980.0,-7.231892544414623,3.0433654512325212,-4.652295125701247,-35.088396815112276,-22.53329354093565,-22.776400037092326
5000.0,7.304071078648456,16.78326431334095,4.377829138924506,33.81128319088367,19.420081516310635,20.493060921361312
5020.0,-5.1461194479745425,7.376000884832255,-0.0670246328027656,-30.721478027520323,-13.926388476769375,18.443796802753493
5040.0,1.630328027547865,11.393343535064567,-2.484312431846704,19.119490495657406,-8.163603735190556,-16.81623891037245
5060.0,1.6592530314016942,6.271256201817021,1.4618466472536398,-10.858759399100498,21.483814125266335,-23.967547858134502
5080.0,-3.477507019272156,10.443521430357983,-2.3184090759835243,-3.744338389752739,-24.700361942864877,12.55922371038541
5100.0,3.879212336725073,14.271011049543768,3.685246901786586,18.143994924881596,17.21143771325834,27.015501949746724
5120.0,-2.4781884408604475,5.216850688138521,0.15698033327042632,-24.976738776701342,7.072979949335921,-6.997491169948583
5140.0,1.8483746371762806,12.15350031428565,-4.811386931468736,31.844639363641384,-20.600974414119143,-27.562003565967014
5160.0,-1.7479952487313102,5.061124618234863,4.187779853137421,-35.08417923896494,26.04216064663417,2.149409316337026
5180.0,2.621609933560138,16.335367561138593,-0.21599904689149446,28.935981274922916,-14.06473553069267,30.007214236266957
5200.0,-3.5337962574565833,5.942456131805414,-0.9763382578032617,-25.91622809787542,-3.640493783640628,-0.7525580153039836
5220.0,4.206350053725514,9.313041633867826,0.5457504146946197,16.345238453377434,21.803560161046494,-32.62145839584654
5240.0,-3.2099275945578065,9.364786033246057,-3.8137786364534345,-6.557758155865268,-24.93945645468495,-0.635921772293123
5260.0,0.5038345192803181,10.465903812067403,4.442168883051586,-8.415994809206367,16.56827147663787,30.37946109912672
5280.0,3.008139991334924,13.55347797167325,0.8271558417998683,20.093640939072838,1.3101157093558524,7.808612279462692
5300.0,-5.977530336554638,2.8766464635474867,-4.358666847604731,-30.59110802413845,-13.690903882478427,-28.810159754242548
5320.0,7.555607413101465,13.519040952242735,2.3811197470556027,31.139794070294574,24.132907146709297,-9.25502277299017
5340.0,-6.586963814973329,7.262157413822026,-0.6793180356118595,-33.869377110949294,-22.44933380602235,27.593606415182798
5360.0,3.9614150563183204,15.417871022661181,1.17205880434002,26.375190045070003,1.1450843944669205,16.771818651701587
5380.0,-0.6468779372969742,4.448496391134584,0.36812761793651316,-18.840054287680335,15.138268064837632,-23.16233111172344
5400.0,-2.193865298893344,9.43725300768684,-4.912243609460453,9.362431803898199,-27.151356483912537,-17.32607242488973
5420.0,2.727175400473924,12.103731141762578,3.6052460348914583,7.871979903049806,17.92980327981966,21.25576691928061
5440.0,-2.427798415823041,9.5414242516286,0.5400882729581027,-16.697911426585677,-2.662657535510061,23.46354431079932
5460.0,1.8116193086350492,12.104290763200433,-3.4406520220524057,26.97796883619063,-16.396940475184028,-19.780853724258836
5480.0,-1.5217219649133493,3.0563438421483995,2.1772954192167107,-31.633528938282527,21.86532849991866,-24.469671500422113
5500.0,1.9933227895660932,16.050480929153885,-1.9351926508993464,34.984980993178475,-20.73926187193771,17.214488971390256
5520.0,-3.2968178502632735,7.909348878416987,2.4392205191634924,-33.007662358670096,3.284029904314112,23.575801871243105
5540.0,4.501699013984183,12.519031805837033,0.7729146280482188,22.921224031476875,14.483606128634744,-12.389999607690745
5560.0,-4.643681170773157,5.404785520636109,-5.5430892437732435,-11.221466510311991,-25.04571256552834,-29.63273473365699
5580.0,2.9025820053757543,10.491389369705194,3.6107438791741138,4.0513126441653915,23.81692115558668,7.232357760787131
5600.0,0.4712999955507534,13.92131894847331,0.7935414670223238,13.494497167492717,-8.409123594189854,28.021588534312677
5620.0,-4.045180698246348,6.116178672313409,-1.688707484963304,-24.158783683376907,-11.355530733825562,-1.2249370030559514
5640.0,6.462317949041775,11.523737271723173,1.2665463963784789,31.20494367612497,25.82730367497661,-33.073120764807996
5660.0,-7.240093755913609,4.488657261633689,-3.408083428171763,-36.08974594571333,-20.62698258667074,-0.7160283554195082
5680.0,5.353808959047889,16.952013838440436,3.717075090165414,30.920692288551326,12.297527450050287,28.657564598569117
5700.0,-3.035476536999425,5.961100667221318,1.7673704137691084,-27.313646671888655,10.22239084204934,8.509732875617189
5720.0,-0.2953906327444067,10.235190370223068,-5.2117397242583205,18.97033024378602,-22.32940452414696,-28.910941979169774
5740.0,1.9207969125986353,7.952809622646139,2.6668756958452087,-6.299822061166294,22.53176078908832,-8.651673359215888
5760.0,-2.455734749492998,11.459939292977815,0.0751376916378839,-4.246880381568422,-7.670121899209346,25.34807046422283
5780.0,1.8805627576367643,13.173605727094278,-0.07818964153590025,17.00202897420432,-5.89085249934505,10.861026677206095
5800.0,-0.8224111299669534,3.8864048857162143,1.3065441105519162,-31.511299210307143,19.39647539160805,-23.99970317961984
5820.0,1.7199123534969372,13.104030667885429,-4.317065383769846,34.158461411907716,-24.26641006335749,-16.50345538348683
5840.0,-2.9294080626803805,6.835483715757681,3.8118916608351037,-38.15226848030488,15.443606895473984,22.15589800427822
5860.0,4.615117222704024,16.060830565665782,2.067452269211533,29.692975786172642,5.620310502816358,20.377898633273595
5880.0,-5.372674705940307,4.962394146497899,-4.0982763537133176,-27.72888304678784,-18.472612935659402,-19.816304729509685
5900.0,4.8012389438096745,9.497683723190868,1.5845961283085654,13.896842185824825,24.04328520769132,-23.786533451874654
5920.0,-2.0682956266990784,10.982187404865462,-1.1075977882938373,1.9993980568619143,-12.840647670803852,15.462924673834536
5940.0,-1.8018788325356245,10.324207339876393,1.7703516175887462,-13.599428369881018,0.01857241897865647,26.613361778104203
5960.0,4.868583067992611,11.768438275602625,1.721420627566055,25.392830763992585,17.697653637108747,-13.5760543091216
5980.0,-6.876762399549129,3.007605146930608,-5.6074273899731555,-31.336846131240797,-28.581969014799945,-26.615358366625255
6000.0,6.665522498941783,15.58938572697033,3.26317932842056,32.726021538884005,18.247376423096636,8.041643399846537
6020.0,-4.33913326993357,7.477473464256206,2.0092046245355815,-34.12914785588905,-0.7532710855389804,31.373798490574547
6040.0,1.284954671601353,13.624082320665236,-2.824873364808428,26.922379429566437,-14.436854663185837,-4.806865647147484
6060.0,0.9175144229316982,4.608435118687272,1.731116068232786,-23.232091522019363,28.669718992272294,-29.305608669800748
6080.0,-1.561976763703197,10.833664294004658,-2.7025276473501614,2.431259583520962,-19.301260036889044,1.9960252677578434
6100.0,1.102764296358829,13.188251496713397,2.361757151961572,6.620763442786315,3.8794301093720907,30.867264975714203
6120.0,-0.474988984371221,7.483849303748318,2.7573601196773705,-19.584995592426548,16.479673124086514,6.791269125382657
6140.0,0.6052573455652065,11.381906333691786,-5.351638466726939,27.780033477790393,-30.192621442003464,-26.66649149858467
6160.0,-2.157747665860578,3.7393704825701772,2.0933549674403102,-35.67592208563295,21.128055560402426,-10.58747373064699
6180.0,3.714098727417568,17.302875541506083,1.1258157240953932,34.288959646166376,-3.72363489933688,28.053851708804785
6200.0,-5.7661443541730435,6.509761862728806,-0.9218357841772249,-32.165453020649466,-12.872995705690954,12.242297978661906
6220.0,5.859239168935981,11.243705571334544,1.6379413336711033,20.913479193822504,24.935109172223346,-26.281730526092083
6240.0,-4.023750824709192,6.48572550357411,-4.335823252603525,-13.603318057692778,-25.843782875983926,-13.636309815012698
6260.0,1.0197951364831868,11.8899726590704,2.489710013356472,-1.5773764292922396,3.6355793627357977,24.655656646066454
6280.0,2.8867645311250905,13.633612299026,3.1296182260895145,10.068081756321904,10.155136059521551,21.380508335043434
6300.0,-5.689658036016866,4.275451806004953,-4.592208180286874,-22.087474380872074,-21.3728608966069,-22.32870986402447
6320.0,6.873544809095204,12.35742872328599,1.9031465664822962,28.089987870939343,26.315983440681297,-23.21826091756062
6340.0,-6.148951189930008,6.025229401050197,-0.4386738746019808,-32.86727358911695,-13.815801920529829,14.17697983168842
6360.0,3.2472398033549994,16.707517593088095,0.7923688830665265,33.94663833073168,-10.37544398021423,28.23730344762005
6380.0,-0.7995709969937094,4.812588146436617,1.8726472567466375,-29.63402411016498,20.32386887085681,-15.342146481087882
6400.0,-0.4198116184001148,9.783447600764621,-4.962166620651499,15.827446759184117,-26.85369967144123,-26.624064474061854
6420.0,0.6159033178318947,10.358541638816218,2.3611763680045925,-5.591411764885414,10.479490647639071,10.489292109064223
6440.0,-0.03255427542044667,11.438075357758956,2.914054305365622,-10.376352018896071,6.287512629017228,31.881632148782217
6460.0,0.18584902567921047,12.34733181082233,-3.308879513522456,19.295063072057477,-27.2552944274818,-2.98453320591861
6480.0,-0.9509878557435307,2.9777650135214007,1.3927679086122358,-26.627297770074634,22.151931596327916,-29.880209202653653
6500.0,2.940283776321369,14.97100250484191,-1.8638283361181303,33.837255444817906,-14.236336805727232,-0.4944358331215708
6520.0,-4.804459935562531,7.297163007776379,1.4150268652154796,-34.748350575579884,-1.38830815876143,32.51956762283587
6540.0,6.240470260077579,14.594750356902393,3.0825075699085676,30.92705210636178,20.889690585981352,0.28869893996069207
6560.0,-5.641099132452149,4.131590882951537,-5.541004122882045,-19.32905639598367,-25.397895517573932,-26.587740808534235
6580.0,2.972500724263334,10.859544969017835,1.3746030813253187,11.249201119562171,14.924036605850818,-6.011286293158559
6600.0,0.14654629035596284,12.21111785286824,2.5005316399926554,1.3113080589699426,5.284869839134304,29.72506968763397
6620.0,-4.178840006771751,8.656821294479792,-1.6533394104085541,-14.394765384251171,-22.030827593346043,10.140742744692993
6640.0,6.222795301492997,10.820815998825568,1.333558334679757,27.024476803829625,26.322889787156406,-31.171187549579727
6660.0,-5.948569877730539,4.008804415052469,-3.781850460935892,-35.08684408111144,-15.961799556819633,-15.45293715536478
6680.0,4.401384206903343,16.985257906600427,1.5483622570200877,37.415639373068316,-0.6487780334017073,26.779777479505785
6700.0,-2.2038986183849936,6.843268972298528,3.685932491759226,-28.75565016641555,14.374883667413044,19.070220305017457
6720.0,0.21766499807642803,11.603991619529069,-4.918714639645409,25.945693704900975,-24.59017969497183,-23.558086482465892
6740.0,-0.0548714797883893,5.732749851896832,0.9905840724711773,-13.857536322756712,19.456941368450302,-21.68678806349227
6760.0,0.08501334180777095,11.484891583482181,0.4996200634219608,5.718196930938522,-9.63384922144784,16.670620164650668
6780.0,-0.5093944661436884,13.473422502312413,-0.6770948166734443,11.152777495777341,-15.83838313141885,27.101379575100285
6800.0,0.34289554503386427,5.587902140780313,2.4619925943141365,-25.307331510442893,25.028724259930502,-17.339317134994808
6820.0,1.3727792117535003,11.979627978977513,-4.459419929731863,30.99098896612551,-20.589331739233764,-25.518677745452663
6840.0,-3.6142076148178814,6.0500319286168365,1.7191988800467122,-35.49465846575546,9.268263331245254,11.319816524874277
6860.0,6.3049387117584255,16.931616865703944,3.825475068172296,31.289934469247413,15.175899246337933,28.281051571279978
6880.0,-6.639082107230978,5.096668847376206,-3.4791062249725435,-28.030892284223466,-27.18175054754387,-5.139968582151729
6900.0,5.817916152430615,10.311405570866638,0.994530038576077,18.916615895094417,23.409308120543468,-27.054113489070573
6920.0,-2.267590403043217,8.592158587904931,-1.0904363157442931,-12.860341509751343,-9.655120697106682,4.168936759662822
6940.0,-1.6481783217530688,11.914210639584208,0.16659115434492078,-1.7384485489878803,-16.16247651710262,28.323009199043476
6960.0,4.448522118095684,12.060549984968619,3.5707227675615796,16.8430733036772,23.206299986975257,4.071287308991133
6980.0,-6.293120468750939,3.4200138096078105,-5.268035039554738,-28.999874527566927,-25.6507862231349,-30.955132076125167
7000.0,5.3297344763286,14.163206145375387,1.0092728341020476,33.51420662875607,9.75388356772439,-6.425712632840911
7020.0,-3.770309981322913,7.015983595189567,3.151978608862601,-36.70487072494267,8.563402756606022,27.712867554063394
7040.0,1.627539747863612,15.259926532872406,-2.8891330795267374,36.39254430402684,-22.332100371217052,11.700100056753746
7060.0,-0.29429614488066946,4.045734228493762,1.256238169502626,-23.335260122521753,23.672767315329214,-28.26402923135585
7080.0,0.6660291786270753,10.9552505183072,-2.65955641975284,17.599927784106754,-12.199335668914458,-12.36784639549932
7100.0,-1.3929571928870956,11.341217468451775,0.8235292118624777,-5.615504025602519,-4.9975814910733245,23.14810952350102
7120.0,1.132888599815766,9.568225060979028,4.3823804799194646,-8.961707829009507,21.180793809641596,16.97963860444366
7140.0,-0.2137234078648678,11.02184484360339,-4.907280049911442,20.89798726690478,-24.265429814085884,-21.67272347363129
7160.0,-2.1597853417078667,3.5373102504865073,0.42613587761272365,-30.14755169795238,16.000982744796513,-22.065694067488238
7180.0,4.882960750025791,16.68087338231352,2.105269935532733,35.27484956454485,3.702233020378321,22.13608708085133
7200.0,-6.663356778186536,6.783194775552293,-0.9539707532661681,-30.88102112712442,-16.423120261472835,23.011092081970553
7220.0,6.926392626846581,12.360776266783715,2.284844997606367,27.55399781275262,24.726173284666498,-17.470139353936236
7240.0,-4.449810349412603,4.930037844979768,-4.010919403106339,-21.022093213714122,-13.235441599097976,-25.3774589828964
7260.0,1.13252407040317,12.008167539450412,0.48760335325123805,8.67539917337173,-0.6914621373563858,11.832027782228876
7280.0,2.529079622838942,12.69990458162654,4.586297137941121,4.853015081494451,22.56953397726338,27.63162894900581
7300.0,-4.889165963704407,6.702534971182291,-4.1834449740371245,-14.611018609350138,-27.492159006384394,-5.855446290613458
7320.0,5.5762698940939925,11.483634856791,0.6125051634305174,25.475228776466345,15.451373609019312,-31.6745811945176
7340.0,-4.482271716588663,5.473196262433683,-0.071648020591138,-31.69380877306939,-1.1637246243386006,6.054027573044175
7360.0,2.6450612253367534,17.572508246822796,-0.43269071612763255,36.08875669520361,-17.520947160609932,30.901626291124433
7380.0,-1.1925411263691004,4.962245559128681,3.2987957649264126,-31.296930719831142,23.247270757118812,2.1968011768266074
7400.0,0.8710026899404156,10.611137943858662,-4.68173140391783,22.02755293153082,-17.771386895988353,-30.49787887382516
7420.0,-1.605574810493144,7.238117506707956,0.03146172231513718,-13.437884004927026,5.485655944982611,-7.387843846007948
7440.0,2.040566736530505,12.543455969022677,4.21369042330986,2.901774738035913,11.00610085309,29.804400733260334
7460.0,-1.4152053273933267,11.740573511288645,-2.9251881905305797,10.043277457734376,-24.829956142158117,11.347366406758463
7480.0,-0.3919690816343525,4.0685425203453995,0.8666571650725774,-24.690263851609764,24.094486684415802,-29.65642029598075
7500.0,3.080994684783518,12.911553214578863,-1.5917480013834395,31.648588645799,-5.642624625122509,-16.6069298162361
7520.0,-6.165760731947929,6.861380493815706,0.2178968197057216,-34.05780644944764,-14.549980525446731,25.966315264290017
7540.0,7.272996125545309,16.210508236964856,4.522665384923344,36.25651546544026,24.53438277714103,13.13149464584229
7560.0,-6.802121153391985,3.8826789326847573,-4.758720773718411,-30.07066882976452,-22.681651012237946,-24.41758436165629
7580.0,3.536376032264072,10.999000252610589,-0.17729536337786883,19.700303364893053,8.800570243580689,-20.263175010047373
7600.0,0.345204907796358,10.428455306813422,3.111078640340742,-9.012662709887826,10.857715401146972,21.77689556873631
7620.0,-3.414785740492448,11.152518200663108,-1.9197563234794164,-6.118793572545238,-26.082114338447326,23.736203221805216
7640.0,5.080050455273558,10.843226797734761,2.172776357073911,17.359141737499087,21.718249174989545,-17.04812382570114
7660.0,-4.898933333555252,3.419188932041318,-2.6470178063954557,-27.113448227600557,-6.852612576692593,-27.68602788626073
7680.0,3.4198852354578753,15.446766689079485,-0.2711308487767308,31.335254218834585,-7.17806817409197,15.523441137148348
7700.0,-2.2065303780121788,6.653902856755925,4.660992912289004,-33.742589097787615,18.858125907167246,27.38399330934727
7720.0,1.4250771339664978,13.791950021747825,-4.25705159853701,33.56516565172428,-25.136062038103177,-11.372808370865313
7740.0,-1.7721444073378985,4.343036851943553,-0.539755054637487,-20.988732018914526,11.497687113440294,-28.83077316375363
7760.0,2.66150751840388,12.3623955017901,1.1515217142326806,11.768316582939878,9.817890091976025,3.6865165054782274
7780.0,-2.6791724672838177,11.862105257836571,-1.32994869489007,1.1351777881058476,-21.132144809414132,33.5694154448927
7800.0,1.5540696777683143,7.864357618347177,3.2862258592513958,-11.140929040284485,27.59127010836152,1.5498020528786836
7820.0,1.1985873190011547,10.287445230609089,-3.608835619853381,20.98954402548136,-12.849771450898203,-27.525561524391915
7840.0,-4.81695750034188,5.053533460956579,-0.84399182253513,-28.740890182047043,-2.6034753235771992,-2.764149125700781
7860.0,6.658789935236713,17.151147058297287,4.653646292288022,32.327149126047324,18.786052591679823,31.40614870007295
7880.0,-7.290218762443644,5.529038002953144,-2.693255490123272,-30.573009054717787,-21.395744445153596,9.162647935784207
7900.0,5.2681705001225,11.291282728229755,0.11880602159088138,27.70840337351327,13.10443094955772,-28.576633057390755
7920.0,-2.1790158678156084,6.123431630031175,-0.2527270681546742,-20.161095265280483,3.665899524719916,-14.588167937257118
7940.0,-1.4424138732775245,12.929508721064819,-0.9164922310725783,5.45990016723994,-16.943595357106457,24.361416079322375
7960.0,4.1434975661848785,12.026589819808038,4.498601819847002,8.938925591745413,20.28931095290075,13.095649977380193
7980.0,-4.418374555862133,5.040925640714441,-3.912945084000323,-16.535066755330032,-18.462167851356934,-24.15624557658484
8000.0,4.0429525219591635,12.012426800997424,-1.188549749324517,27.105022192357307,-0.813913926447435,-21.13984147865133
8020.0,-2.4185051581147405,6.740674390815901,3.898179159189393,-37.153997537099016,17.270792406973978,23.941066288016366
8040.0,1.6965110155882466,16.693650394025543,-1.841428406672489,35.287217215015346,-25.596552711095946,24.23185721667024
8060.0,-1.8414983574107786,3.854000765336229,1.6965436939984664,-30.075883414317214,17.880024414389908,-19.859318024791506
8080.0,2.5412428603688753,10.706142606415476,-1.9847677994731328,21.67428816521545,-2.993175723748593,-24.604547478757063
8100.0,-3.51748255397391,9.414379603260464,-1.2472644662509342,-12.714728520220849,-15.595236683396903,14.978401171091484
8120.0,2.951193248502665,12.1879208252745,5.048722235486629,1.9238130604471357,25.311033351491623,23.47383334317769
8140.0,-0.7678615618188109,10.685823212785527,-3.696133393185067,10.706907675634332,-23.25635096305773,-11.579344670891047
8160.0,-2.365313582403894,3.974857187511645,-1.0317871230536746,-24.438087208470048,6.520173638941951,-26.663181522671948
8180.0,6.039636628699032,14.825016395034563,2.47132553854918,30.22970809942189,13.337218939921417,4.6473595755606745
8200.0,-7.359663859286879,7.262459997937508,-1.480902907310756,-35.45830678066972,-21.96008764358306,30.61976405890503
8220.0,7.099364929273753,14.376197984168273,3.148061992606547,35.04451814311136,23.56140422013128,-2.382415237719749
8240.0,-4.541212135703351,3.4895264553576997,-3.321878645408587,-29.357807067684742,-11.720661501275229,-27.089486900358324
8260.0,0.962167809348777,12.23002102755009,-1.6226557352498796,20.673567112166623,-10.929382083732873,-2.7307107305013085
8280.0,2.4694066779935127,11.20577696635621,5.255610171544189,-7.194090471666295,23.87532987421425,27.52845307594644
8300.0,-3.4295983407660944,9.408279461823103,-2.6014394246826167,-2.7608986383284506,-23.8299745629344,3.21092930264051
8320.0,3.9172415907158613,10.113352592184835,-0.8181287511182901,18.802616295976065,8.433914121888566,-27.05071813923345
8340.0,-2.3755518439770174,5.044768620213498,0.3528997514524755,-23.780494999573726,7.858815040978624,-9.796725750069044
8360.0,1.577518536116852,17.347756803168622,-1.4724805317610148,34.61876811108867,-25.398673275245358,25.352323519848937
8380.0,-1.940256550460546,6.2800172450604705,4.139310999848529,-34.23473032596323,23.75984310023075,10.374402328289547
8400.0,2.4612500706964355,11.878350811523983,-3.2527086108476886,31.18984411737614,-11.613403429434698,-25.884338181501814
8420.0,-3.7709628862907594,4.867298051798827,-2.0794596535870324,-23.415853583186024,-7.506992487381739,-16.57713937210208
8440.0,3.660421787867762,13.045613055666776,4.760876591520386,11.802308901510093,22.720169504138806,24.29889204736895
8460.0,-2.8694462657942936,11.400268929517544,-1.7967769147884092,-0.5109991219634737,-22.07957578205915,21.294101888912486
8480.0,-0.17183931893048604,6.2739806871176516,0.4366767549765431,-10.432667509455289,13.20763539103384,-17.283805166669918
8500.0,3.4848773140393456,11.2037291567001,-0.8322702864426278,25.051366795036202,6.361084971492989,-18.937292276867677
8520.0,-6.454998917317372,6.930445567388204,-1.4780951942196645,-29.978027752187977,-17.886173973099105,15.560933660842405
8540.0,7.233857180016279,16.949609916246466,5.199655449941995,35.85811093066273,23.972751485031118,24.424830583272254
8560.0,-6.239717981237225,3.7815591046310657,-3.0932261799316287,-34.03761914979264,-16.263439698666367,-9.363664149237431
8580.0,3.239679776247583,11.331643701041768,-2.0543330191790905,27.80436510880127,0.11243201329102348,-28.0321462920479
8600.0,0.2531622082995838,8.113300711765563,3.1816082306326114,-16.18188170087516,16.641594729368286,8.62488506802892
8620.0,-2.5308435054651683,12.687556361748767,-1.5806481798793015,6.539621297830792,-22.549033035441745,29.315868044573484
8640.0,3.172871665746917,10.28267236574548,2.0571602140300165,8.701690734255816,14.110966615762404,-2.732545149097011
8660.0,-2.5951344092174553,4.549514715212994,-1.9708980829035014,-19.418775956626277,-0.920812344506206,-30.662252486259455
8680.0,1.724805690167871,13.693484212016589,-2.44192938211711,29.971220652352315,-16.875864453000524,1.9618842551193643
8700.0,-1.485143477852772,7.604155275517876,5.596206144229938,-30.515443640236597,24.842817365494483,29.711850529929674
8720.0,2.1074501332639817,15.043802868973044,-2.19793484955647,32.69509652428269,-18.770210065920182,7.0580341219470455
8740.0,-3.5665171390477903,3.201435537277623,-1.4802617471539803,-30.927204375062328,3.81506921179745,-27.877406033256523
8760.0,4.6191740743756515,11.987087372992436,1.5939630046408637,20.920213768760256,14.058924091172852,-7.712960597325739
8780.0,-4.495224017113643,10.746606472985759,-1.7918139298147517,-11.140637026972504,-24.362931711016778,23.834603098326248
8800.0,2.052328450015769,10.614700508300752,3.9880081384429573,-1.6562533228383098,21.649251646847834,13.138046021007932
8820.0,1.3747716259751992,9.366468519090038,-2.4682280287129097,18.611020384801233,-4.496303162486577,-23.931374504538088
8840.0,-4.960278231230211,4.798880287773484,-2.801764637815675,-26.001844766287775,-9.345478143433793,-15.99573580358786
8860.0,7.001955492303132,16.576263263010627,4.730954031316691,33.39822303556794,24.996289736097623,24.819094963238157
8880.0,-6.781676063401841,6.3590510670249945,-1.7244112308588655,-37.17392152713115,-24.74555796696052,18.493192534411666
8900.0,4.890172191983751,12.583139779485803,-0.49877302929168676,32.979024354495174,7.802951433259062,-22.219586483670952
8920.0,-1.9544839562816474,3.895024321869214,-0.3899400568483915,-21.066004926564467,11.994582976826244,-21.3539211534504
8940.0,-0.8803036606394601,13.60230793489636,-2.001180373105905,14.349269840009354,-24.507825604597876,10.933622301996973
8960.0,2.1940861799693168,11.996686139185906,5.168803285786334,-2.65835211908166,18.520168143984613,29.857999695788106
8980.0,-2.336565584726432,7.380618680531644,-2.3808184305125626,-12.024069487707834,-8.770691051246985,-14.796289583352475
9000.0,1.6687462463605311,10.739542894321174,-3.512526058891628,20.691694246225715,-6.769593767091328,-27.255494234320786
9020.0,-1.3704325601091782,6.327638973013027,3.9002985717791727,-27.04352826896498,19.337676478468016,13.167041019024914
9040.0,1.561990755603176,16.999536805194317,-1.3449970031941152,35.32952196764249,-25.648696088172407,29.6871625055051
9060.0,-3.2705021715273968,4.398192754998518,0.8644234557467143,-34.50805937123314,13.255565881503143,-5.489001740881612
9080.0,4.589728097974165,11.467650541181808,-1.054780148766828,29.813578609081855,7.0164846232854545,-26.62355978316827
9100.0,-5.0396009665565,6.680694893296119,-2.8591435563220027,-23.25752311371485,-24.73686851873579,3.011847536608525
9120.0,4.378171613962307,13.601209831260269,5.44777749613621,9.242311873672614,24.004408084353614,31.912146253125762
9140.0,-1.368219551555756,10.52207147201225,-2.0566505749371307,1.6970733000171054,-13.889080332042186,5.528314647038906
9160.0,-2.438748601601141,5.391289047206285,-2.7493761239851744,-20.38686246081717,-7.424641926240781,-28.273153446919377
9180.0,5.26415145508664,12.897703182126776,2.408599788208181,27.160945462452794,19.62504706069104,-7.513037873181009
9200.0,-7.119418599309103,7.548073502948752,-1.6368777068984575,-32.71519497525337,-25.18414581911358,27.721491697179456
9220.0,6.52154694192393,15.519246337209195,3.150027542222903,37.13807712947837,12.026589425004289,14.237487304593632
9240.0,-4.121791708060869,2.9601410107884414,-1.4750921797824812,-34.48720155564418,2.0205859562727406,-25.913899964360176
9260.0,1.2218669508335287,12.319268119587433,-3.6248076640477733,26.374882282812074,-16.691150170317286,-16.453689486964524
9280.0,1.2752698902695674,9.926864553651578,4.783087660022536,-12.25497256443376,29.18740247658282,24.918194457772774
9300.0,-1.632390799469103,11.454510697398291,-1.331351048858116,0.9915089939664419,-16.86086892161961,15.876986061384192
9320.0,1.351733271406808,9.019503549908794,-1.447233396290048,10.795844769938554,1.2003506730065399,-21.661710168617276
9340.0,-1.095636628873381,4.8810562111492874,0.7615851413101403,-21.838914377620117,20.26628009866721,-21.47241860308618
9360.0,0.8410601705661199,15.936830805130905,-2.4071827199061997,27.074337494294113,-19.82979636715106,16.96645692907027
9380.0,-2.172920689101166,7.080424776383047,4.293096601370628,-38.55178635773476,19.89441362293805,22.95761853105124
9400.0,4.029830909492275,13.633432930274223,-1.1649004414328157,31.491076045485404,-3.451559964523795,-13.342099574880294
9420.0,-5.489853066138695,3.5535384239945556,-3.972350369958165,-30.35543443030731,-17.412438392495595,-23.247386673795173
9440.0,5.438814965893274,13.915977106216415,4.349469960576087,20.239117235505013,25.469588288476366,15.302072924633661
9460.0,-3.4217661666708694,10.912727168827555,-0.7773219528722255,-9.995758667881626,-22.070027430381604,28.654073947475418
9480.0,0.09150487373046343,8.263156308841108,0.3873897724753348,-6.2275757333106965,2.9007361152784705,-9.216140593966603
9500.0,3.8085638828164505,9.59895299321973,0.23222290336287887,16.86397835331623,9.511066602455205,-29.76664927693102
9520.0,-6.399254479033539,5.7996117074364175,-3.5165348357715103,-29.59434619275704,-26.806286367529257,-3.036477795925437
9540.0,6.815982813021725,17.50877192666563,4.935703108353124,33.296146696823094,21.77197677425298,30.262669654888526
9560.0,-5.5050107980339495,4.523864626817694,-1.0947972387160534,-32.25969743946337,-9.97202693736777,2.8383069703842727
9580.0,2.8455497887931984,11.898869661164813,-3.3323649304108827,32.1968694344979,-10.089823325579625,-28.84952107672702
9600.0,-0.4774707778565409,5.946964037771778,2.8253996771943055,-23.949123919857907,23.769378781056652,-4.959774031522013
9620.0,-1.0837826053367114,14.011232519779393,-1.0886585075660413,17.61145867780115,-19.84684817958407,30.00847233323654
9640.0,0.8684286937855034,10.70568260115578,1.9540713226160855,-0.6111109476828842,8.030290543028153,7.3449629253548725
9660.0,-0.20050058789343284,5.6940518908556985,-0.8980225595641053,-14.454882115820727,6.9007817768212245,-26.96635909347318
9680.0,0.26574354614970974,12.096507410742639,-4.038727419099481,22.620617275197077,-23.27500865587927,-15.897384197315404
9700.0,-1.176187855976453,7.436854596386896,5.181546339080562,-32.718569746903114,24.179780175181353,22.39683516241628
9720.0,3.0668759868031263,16.330185791175765,-0.4270483744233674,38.414900455689114,-10.606197043332148,18.766161049571718
9740.0,-5.363521539337123,3.441939363269504,-2.6560927339913523,-32.810725937398566,-4.4248252140380755,-22.002413045700546
9760.0,6.4007467676139145,12.33526515938138,1.4119385583688913,22.792147230874026,19.425277116585345,-22.19311195192012
9780.0,-5.188092954768862,8.500792698464728,-1.9320366603937262,-18.24035523228781,-24.29173287150231,19.789043154921043
9800.0,2.5432166689182116,12.817408184864924,3.2938003225603403,7.237415560401981,12.088625281537697,26.50699038730945
9820.0,1.3536063937098657,9.076267363088498,-0.42955288483713994,7.039673965750883,4.080400521838319,-16.078487696926846
9840.0,-4.617866352523816,5.206733857582056,-4.3634000285793615,-17.30119144096486,-24.80026675205429,-25.83354481363216
9860.0,6.494843303967414,14.838571549595258,3.973236514156733,24.622696954609893,21.017294328571353,15.42847900776632
9880.0,-6.048527884194255,7.396259996756577,-0.2617279915083701,-32.44079578635868,-14.576318543734684,29.611061920615704
9900.0,4.382998776489944,14.040881173492064,-0.9085567086948706,36.531682587019645,-4.36041096647334,-12.520641466760376
9920.0,-1.7046161271994045,3.336852985813294,0.7067053813242911,-31.60907669162362,20.104814238913296,-30.424007916014435
9940.0,-0.01691081536427881,13.615279303438282,-3.2485083966257475,23.625998176584957,-25.424777719636893,3.7860802823066546
9960.0,0.36835424715385007,10.465156902847864,4.538709899313033,-14.088819843624266,16.520406022985522,32.585773088058936
9980.0,-0.05897616031063707,10.064524760218243,-0.1423822586429787,0.1962280165523182,-0.14544486583532779,1.533387537313715
