timestamp,ax,ay,az,gx,gy,gz
0.0,0.11343689336992285,10.273242830233741,0.15285160578417323,-3.345675447037282,0.8350739264719076,-0.7708474734947156
20.0,-0.42590203822847195,9.246384861103675,-4.404722801939484,12.430368528034995,-16.43196716872515,-31.882688222238198
40.0,0.004827424760280974,6.247142401900185,2.9439856798350705,-25.271721831786657,23.28086288992158,-1.858460139887328
60.0,1.4791728020508397,16.652723805398676,-0.46043635079497525,30.026479446808235,-17.463121000604875,29.771993812481625
80.0,-4.35439797592314,5.450244327126606,1.2468612702101682,-34.74121703114059,1.7967766642049305,9.713225436230719
100.0,6.382221386247026,11.88302202938111,-0.014394455540763018,31.102568729602325,15.123738278410068,-25.974992638247265
120.0,-6.661285087950432,4.94734046629785,-4.605249159814043,-30.065803794858425,-23.80332336333962,-15.469630530301238
140.0,4.681116338852304,14.651670295462056,4.528520233688884,19.07822547189642,22.638490138871443,28.836061537188634
160.0,-1.0338031971503732,10.71069111086909,0.2328940060399636,-5.9042353588408405,-2.3365249365128737,17.499791760130357
180.0,-2.5900724107764272,6.801300645322459,-3.5253571034733766,-9.896643385140061,-14.094386491003666,-26.975449995877717
200.0,5.524464071585316,10.898936459904505,2.0615764353180444,20.155612481731833,25.10620966678669,-22.117765487553392
220.0,-6.0324756010531075,7.366078937019369,-1.710779135948081,-26.937556873197305,-24.784037942151276,20.473147553241198
240.0,4.918735523822721,16.470677565291894,2.8071353644894823,35.01908820882823,4.7058414930233035,23.75588979848127
260.0,-2.8194342646425077,3.4560325192618926,0.415395073061428,-33.79733183707825,8.819248129415136,-18.76514137703549
280.0,1.1354280809107071,12.058799077420549,-4.815376639680843,29.65463876405237,-22.10111972346703,-21.55394063791038
300.0,-0.5818528253133386,7.7451256440352685,4.141402882469947,-26.17600105276262,19.315106416259983,10.545662976729277
320.0,0.49117056629017153,14.012345373186585,0.1391609659540366,10.186495537258542,-9.391773716004026,25.62446202402435
340.0,-0.9680449453361445,9.027842571841257,-1.8745057014203101,-1.6211759927916316,-8.580591886259649,-12.78633325192559
360.0,0.679669264606342,5.3348162101199135,1.602127145923325,-12.582996726118346,24.289140967884247,-26.70560070163188
380.0,0.38221386854823747,13.846583619120954,-2.865721977556091,25.41841280624116,-22.581826230093174,6.737709387562431
400.0,-2.2611738663291088,7.438892498254401,3.7263779425619554,-33.51362789805445,9.631618776334484,33.02689092985072
420.0,5.477393368914793,14.596066701670372,0.6923355058271301,34.194685185107154,4.788054496061701,-1.2914982820529617
440.0,-6.85996358408504,2.5338708522446316,-4.774027654949052,-29.72969883558361,-22.437817536513826,-28.990375994277773
460.0,6.294183885404725,13.587812831230789,3.1937638741027765,26.380543982195693,22.508867102598995,-5.619223196041343
480.0,-3.8071473332877233,10.016129364753974,0.05637307360840066,-20.872229057893477,-15.419246750386307,31.01600092875732
500.0,0.1862445960802482,10.86403424521794,-0.32102756220584616,8.588638901194017,-3.2474677089736073,8.840409118727512
520.0,3.304311416488486,8.917986115625036,0.6729614633935174,6.827155636374309,20.54669854747136,-27.846572225688533
540.0,-5.206297030023605,6.162020087228734,-4.3154661771187035,-17.59686242627825,-20.748444583023144,-10.377306656250129
560.0,5.754087083460598,15.868234591050381,3.848476981379277,31.050017549787523,16.734184522456818,25.635041178009097
580.0,-3.8477017009338392,6.31114305511361,1.523890683264799,-31.39061284871615,-0.5136306647970872,14.483069761552754
600.0,2.302590168123508,12.401383867392697,-4.392665148014441,35.47291783596807,-15.902084637419287,-27.009786083181734
620.0,-1.1050282856394387,3.951239852895848,2.437136717658169,-30.590879193859234,24.509989603093988,-20.785496136300328
640.0,0.8039166614264376,14.8589535157941,-0.9838302622596142,22.459785587770593,-16.27057447389961,23.439412243849183
660.0,-1.2397962168514867,10.303948431475675,1.5152755259758193,-11.263389875951521,0.497160227692903,24.238047799869975
680.0,1.8871159916068745,8.009701522727777,0.9256898915538199,-1.2060357453398276,21.29468686173989,-21.51465868844241
700.0,-1.745395178781842,9.824240179977465,-5.268919255327567,17.425084340906928,-25.033046623532808,-23.638853520144995
720.0,-1.0343387108500837,7.730863882280803,3.556668549098435,-23.158866025077145,18.844926955439718,15.007016612684806
740.0,3.675634185582808,16.553314368057176,1.1927803416495335,32.867588374027996,-3.6923483953955056,26.470846988740625
760.0,-6.502072385421693,3.7928823264874216,-2.8365652890125252,-36.78903924545625,-14.418231057552749,-11.248910141613543
780.0,7.203520667618492,12.423711060116368,1.7883285750290336,30.768282283101545,22.144301764847818,-25.355012559155476
800.0,-5.964523206904355,6.623067464667142,-2.369561575180254,-26.51126865606805,-22.442383481004825,9.246128345599017
820.0,2.7607439145529953,14.656057699245435,2.4097086875616482,17.797928875027637,4.509450680419857,32.77711103437874
840.0,1.3806278669055208,9.143769272611731,1.6865571652891425,-0.7959179520525961,14.797669703671534,-4.0908824053761705
860.0,-3.7100976021236614,5.947629034178169,-5.241054396817967,-6.484250112610843,-28.360278808635535,-29.077354532650457
880.0,5.510840321971587,12.682709905938129,3.0436678419959895,23.98886457938827,23.019018168088472,-0.7315871629431157
900.0,-4.505378367610863,8.15828771299671,1.5770604361104694,-26.631464940513684,-7.9333794856437985,30.127672700823446
920.0,3.0428218798375317,14.765746384013205,-1.2024796952931622,33.40076924348037,-7.646257587280205,1.6619423127289679
940.0,-1.6617502307087921,2.336859491845987,1.5879758043311485,-33.535582655475935,22.974162411225354,-26.78269188940396
960.0,0.9651909006601056,13.212459410770107,-3.727947445188713,31.396279646907193,-24.23676603584718,-8.458382661511187
980.0,-1.5914391324359742,9.25657650486325,2.881033451888873,-18.730020854245215,9.98147486741633,26.37825065082621
1000.0,2.366328138869124,12.114712448171339,2.335856608934638,9.25616089144205,8.671682092472393,15.310118878123548
1020.0,-2.44423544888774,8.407386108934489,-4.8379747556752655,-0.8118047630234653,-23.291221146696095,-26.681750253704678
1040.0,1.0970085555241875,6.097824190038626,1.8558596053930956,-12.434477623491714,21.786331801274056,-16.478794156146126
1060.0,1.9621084423922726,15.384318206488455,-0.07892476532216591,26.3955704210953,-12.714141784631446,21.28306773697861
1080.0,-4.971284053252116,6.939595002035166,0.16716235365686666,-35.63030858298283,-8.5772589348139,19.674231649161825
1100.0,7.056225263680215,12.981680036915694,2.109511797925248,33.679010371124974,22.129958072790696,-21.153770271015723
1120.0,-7.230032686761873,3.338896258653559,-5.07125329058346,-30.854005635479226,-25.29294924207791,-26.481357663893316
1140.0,4.783122916716812,14.806351609503835,2.6071967733713186,23.209036405202042,16.931522925583657,16.343122987684293
1160.0,-1.2072475264108524,9.707043820918068,2.2314047953435905,-15.081028969884693,6.037627159647703,24.275825631756987
1180.0,-1.9184383143359016,8.914004691730955,-3.5718918842425778,2.464845181263756,-20.780569585058537,-10.046086101700652
1200.0,4.381849557121907,8.762170701415611,2.0589747055678194,10.594580151717095,21.08476386808453,-28.099980848341843
1220.0,-4.506120966921937,7.582077616341317,-1.7660929003860186,-22.475076352689246,-12.710819952000048,9.716695972075627
1240.0,4.0248284671668895,16.708617467428084,1.381769957235276,32.783099050058084,-3.9496439941233152,28.925125149316678
1260.0,-2.2960801385355256,4.83970310380069,2.160877294538608,-31.341708852718554,17.305557599038377,-3.4486335491287754
1280.0,1.2988104349070695,12.438749228692425,-5.567077698592211,36.075878672557295,-25.99652390002315,-26.866002675651913
1300.0,-1.7306504331203068,5.630802837350218,2.3221936601198445,-30.583692999799034,17.543440950919802,-1.9186612521256348
1320.0,2.802579969566205,15.234197853646936,1.8662933259439456,19.1906483149703,1.2270720185654995,34.1223787512003
1340.0,-3.353982822502552,8.826548095877211,-2.1779777097110107,-11.26678121568469,-19.411458464418136,5.005910100426789
1360.0,2.5176021075317263,6.624499364801603,1.2003033200672155,-5.356164768667545,29.330291391092004,-29.246242841054688
1380.0,-0.3027891889304909,11.352493499704973,-3.285201549117158,18.46011003010871,-17.616000677897922,-8.959040516130457
1400.0,-2.8110769900005392,8.36064143162424,2.2952962681592743,-31.23344171229031,0.9684233980654922,30.719061736422653
1420.0,6.397048696548768,15.669811027252345,3.1299797653469366,31.22177018490761,15.88539400783208,13.39901486895112
1440.0,-7.560935648151525,2.6786355849603147,-5.081343692448726,-34.62702846161469,-20.179251383355737,-24.442089279721163
1460.0,6.711922118535031,12.80312345742682,1.7646035516044198,31.955481759342874,17.950828299300163,-14.13187944251295
1480.0,-3.8948193087525604,8.23105033209401,1.5478259133812724,-21.48886429462902,-6.199652602376471,24.41142654834221
1500.0,0.2202662205866417,13.576676652196083,-0.5533829874671115,12.14833812033185,-14.121804499933637,20.80785592748106
1520.0,2.73588862719595,7.6721030244016255,1.974038404114308,-4.101701881081148,24.57706405597952,-21.190257362737906
1540.0,-3.932291727907629,6.206323704765129,-4.2513177551916845,-10.282118395173299,-21.095418989967417,-18.782362212882155
1560.0,3.803246136214885,14.789161426136955,2.0907250554093255,19.01219537582001,5.343493567531799,19.346410992965275
1580.0,-2.3410476944192973,7.380917769805436,3.2661818415361306,-31.612171407915156,11.117064316665479,26.176224824207594
1600.0,1.4644472350431013,13.122493573418577,-4.312954612869451,34.857200202751,-23.604759791979504,-14.959849864841276
1620.0,-1.600302359704363,2.9845561113215515,1.2463868953011277,-36.87141845849775,22.02586525811691,-30.291706269438315
1640.0,2.6944238097817443,14.983774863368753,-0.6250982532038496,29.175339076986575,-7.218244847313823,8.255071402373858
1660.0,-3.6749713941954085,9.323266390709323,0.7381413893117108,-19.246885327315564,-9.76869051043815,30.012365764923942
1680.0,3.4170101503500083,9.899752939650133,2.934667557638654,9.327136110377774,25.84610993410198,-5.597492083510636
1700.0,-2.3569295341115324,7.938082584208572,-5.576930473073887,4.934041801724881,-21.973619780822872,-29.876006043768825
1720.0,-1.0438236841879982,7.4832193978064145,1.910707908716971,-16.930439317510523,12.405354038098178,2.084514286073602
1740.0,4.086938106258329,16.15654227658462,2.972530047194018,27.178179515077787,8.816838136738617,29.9791404051586
1760.0,-6.71861927428881,5.695538491537595,-2.889556639020266,-34.209602343608026,-24.498477950040893,2.6604712328972195
1780.0,7.507046060046777,12.28565946006231,1.2842293086745822,33.08109509330787,22.685188686043247,-29.80051857935948
1800.0,-5.485259616471135,5.164522868526124,-2.4405256469293892,-30.865963632949054,-10.220003826134155,-8.619278100097853
1820.0,2.7445743652867356,15.915548920959022,1.04687103964295,20.460838088030492,-4.341843650527898,28.25413444990322
1840.0,0.8516449940941575,8.91117120576666,3.783385581030879,-12.091090812450169,15.093675863605293,11.837669193973507
1860.0,-2.799903708904172,7.533276351114532,-5.309801979680675,-1.2026376121055886,-22.733364455559094,-26.031929010739255
1880.0,3.421022085025895,10.349218214256146,1.307679864655837,12.656879631754167,13.732923434793346,-12.96637780606924
1900.0,-2.472371257215985,8.293054699221708,2.078522203863009,-20.214688882283983,2.6347111025789243,25.48750178906002
1920.0,2.0825315765585546,15.747037360920492,-1.489783754632113,32.82985624532733,-21.470739473970497,16.87000755856321
1940.0,-1.7426893630156421,3.1208921510777037,2.295020698264731,-39.840811728350666,25.797583376048415,-21.58055190605431
1960.0,2.1881784395434174,12.890364046882334,-3.5455368569784733,33.01469739350105,-14.67315271809257,-24.020167973030045
1980.0,-3.6429969864375047,7.270143365873764,0.7316728552723943,-26.144477427624217,-0.8713928175590108,20.44035802133214
2000.0,4.622011327350691,14.255047663656637,3.958643408468672,20.087447779108707,17.75699082931929,25.63610383042923
2020.0,-4.00556460129162,7.788873603859585,-4.449835272845051,-3.705603030261691,-26.192617485815806,-18.414008772027696
2040.0,1.518935804985818,6.422023137959284,0.620571624334464,-5.345960872708337,13.586977794829963,-26.542238402219372
2060.0,1.8814388516583793,13.240123379134134,0.36000301712858473,18.83342125181154,-2.0123371512467516,11.738696576230199
2080.0,-5.561970452982537,7.8663426666313185,-0.5025329433525565,-28.415558134193788,-14.894619003237876,26.90404121094337
2100.0,7.18837259282349,13.883601447297828,2.912400392893842,34.29192377135453,24.900280333455985,-6.026726726611586
2120.0,-6.545725526728717,2.2600974658858313,-4.577427065910468,-37.221864899771774,-19.131887715790832,-28.85142305053339
2140.0,4.3278268339430825,14.42847177014099,0.6278086023590703,30.29312098240362,7.01399642695508,0.7737213339505984
2160.0,-1.2948402634077236,8.693310532484277,3.827138782700381,-22.465344050510293,14.546044113208016,28.133510070957374
2180.0,-1.2355771543422085,11.726128838207483,-3.209584321167008,11.856354145103994,-26.203252902329655,0.8579796604394628
2200.0,2.696422764345597,7.573624414705478,1.1217552309899137,0.8993283549905927,19.399358348343835,-30.408713638716527
2220.0,-2.427836974018917,7.833187007217724,-1.378827420639558,-11.127543761074818,-9.131694016669108,-6.6145788998326225
2240.0,1.8503184554820487,15.724576277470154,0.3690486428527704,28.184905565300404,-12.023049273845123,30.783723298502167
2260.0,-1.2488120247587553,6.071296804533086,4.052289665867547,-28.751623215824,26.588974988569912,8.556465593711572
2280.0,1.6924779587070897,12.795899905912432,-5.020185407545371,35.962953937327775,-19.064524031402478,-26.935216953104998
2300.0,-3.455157947331192,4.0275810949064415,0.364694308663767,-30.41937905630099,9.263260516169668,-12.70443551812408
2320.0,4.856686022020771,15.809689406702736,3.1239184426067617,28.830612844595358,11.183271097580999,27.590807915693112
2340.0,-4.848620482912352,8.462496031308062,-2.1094649425980525,-14.133618020217913,-25.018824129299215,16.608438498135257
2360.0,3.807289855955788,8.484521871887031,1.7004561188379141,2.001146537465671,25.611259218270984,-22.347363308049086
2380.0,-0.3056536281830378,9.405832464938673,-3.0707407353644816,11.592985313141991,-11.300243162596521,-18.950919042270534
2400.0,-3.2280966913831546,8.53199337928714,0.1872994273235648,-20.776487169137773,-8.85301616570005,23.88718629681528
2420.0,5.770426275461978,15.7067621763739,4.113858985637784,28.151320369183757,21.950351292265662,25.231390670647805
2440.0,-7.20118774257778,3.6460069492317535,-4.586142339702441,-32.776988000256814,-24.001193535942132,-15.166538775241369
2460.0,6.506172255044103,12.608509287522176,0.22676796310484412,31.59013506864025,10.545269278672514,-31.86950956663291
2480.0,-3.1773761406682577,6.160853918541454,1.7531442501735741,-27.402310932823692,6.196176950645116,11.885244722482469
2500.0,0.6727266143753274,15.075829817849227,-0.997468194668932,22.84928585572522,-22.18733809582871,27.138468753812983
2520.0,1.3081568168321593,7.38207315888675,2.8961962407771384,-9.985120922221126,24.860800534403403,-8.876891527564172
2540.0,-2.3085903170199122,7.257776715060477,-4.059863974787489,-3.340152952712746,-10.863677199532308,-28.213292161967868
2560.0,1.3733168188550502,12.10171979503631,-0.09292710374141792,14.304070579480175,-2.4316273687901466,2.5945576407949016
2580.0,-0.8898588624609856,8.6915557323004,4.745804370479901,-27.94349507725711,17.580259256268796,29.485852175482894
2600.0,1.0726992649170062,14.525929561500076,-3.6403789024486244,33.340616986202434,-21.960837414367873,1.6105857625106346
2620.0,-2.5625454678933113,2.025326311917677,0.427285342769163,-36.94747110398219,14.79606566256384,-30.358073277753356
2640.0,4.333627685789105,14.213816913842077,-0.1832076480051345,33.352927052582544,1.3397053802377994,-0.47459446109294356
2660.0,-5.771907010814469,8.47665600338003,-0.49501963940180677,-26.944445061161982,-18.564367645798647,31.34255147360348
2680.0,4.771985219856433,12.759895702518572,4.187419445143903,19.700545528182943,27.227324049064297,12.968094839729655
2700.0,-3.023804852032304,7.278924331439676,-4.474899805975861,-4.571447746088724,-17.971648609877104,-26.97192301796519
2720.0,-0.7714452321982715,7.363205797317615,-0.5068612270912276,-9.580392783789621,6.2638733826750865,-12.972859304706285
2740.0,4.014473906492006,14.645806629782204,3.766013305223116,20.337184851674763,14.439558116008314,23.708649147572366
2760.0,-6.861883866406649,7.064498840848397,-2.7522169591678822,-31.40104560952352,-25.446035597580185,14.107714011082095
2780.0,6.685661408276827,12.576354284807744,1.1530879761238368,31.38696567787674,19.80561841891559,-23.137553079250587
2800.0,-4.668754800892534,3.3170014284808897,-1.636887911954885,-32.98026332589866,-0.5253923888692063,-19.56445327753492
2820.0,2.4498853422758335,15.981618723356156,-0.6686672948715137,26.835654901583215,-13.3064138663393,20.551289524337932
2840.0,0.3271136389762187,8.567629868487556,4.71986015050183,-23.612449769102962,25.917223901500208,23.262968967977038
2860.0,-1.4780911653802433,10.16196982792791,-4.278015688501645,12.838206067052607,-22.18498170878302,-15.530520509261377
2880.0,1.0859855520588706,8.013094934378092,-0.6678861165995289,5.375580866304288,10.204278702407356,-23.460490742261925
2900.0,-0.5127635595636828,8.647687499958693,2.5605506607111392,-11.1776783395965,15.065058784418802,12.008502409931767
2920.0,0.9543724480607405,15.421969276323036,-1.5867032064109623,24.244689585186045,-23.207404708963672,28.269269887560853
2940.0,-1.8311238398399792,4.225372538710675,2.7413389071170915,-32.14458482343595,25.04064623369073,-11.241771255196964
2960.0,3.518359609623241,12.473994515789496,-3.2269689519812323,37.01239067747767,-12.300593888049576,-25.326984112220224
2980.0,-5.256029917801721,5.860223909205876,-1.1254475535977095,-34.48772640471417,-10.627800028779642,5.1900898160881725
3000.0,6.034306368851246,15.903474301293825,5.135823898488722,24.99773899569105,25.04604451786595,29.22196917666487
3020.0,-4.864072542730946,7.56426610627407,-3.5119773990461374,-13.279104688678117,-25.673464143687717,-0.05425200244769757
3040.0,1.6143582096420008,7.728221823194138,-0.17860234771071076,4.3536836260025975,9.070869398283424,-24.5655726960835
3060.0,2.0165140324512816,10.862877006750425,0.923194934396143,8.522579867789487,5.125328931895357,-1.6025819336911211
3080.0,-5.333118718647855,9.40721786570619,-0.8118543840190371,-21.598510776973317,-20.56095510929271,28.344184292184032
3100.0,6.35669883380589,14.734252204989433,3.9205776719147343,26.69831478499961,24.95498106889637,3.8835095730029083
3120.0,-5.76405010983778,2.253180035027965,-3.6558446902419934,-33.353174243259154,-10.23050701215495,-26.83273438458826
3140.0,3.5084085471936026,13.636514334706678,-1.268792356075053,34.93720107694257,-5.059800387064821,-9.214937978729678
3160.0,-1.186909880890497,7.649067815804782,4.902250514875738,-32.160729322062,20.39392843480541,30.04245628189527
3180.0,-0.34847884704356746,13.669233232942005,-2.535061902521813,21.094416261758102,-24.055463803910797,12.194357651956416
3200.0,0.2571206419717857,6.578371577553823,0.5076223459678563,-8.902671932786415,18.456091093234573,-27.53940288726716
3220.0,-0.3081052177249919,7.704977550672502,-0.8866594366223016,-4.021814932348226,4.665675280871774,-18.584533371722497
3240.0,-0.22644378451201566,14.30248447280873,-1.1844100448010877,14.818236288820197,-21.720697236257394,20.748929197315842
3260.0,-0.47907442229416575,7.920757050441481,5.0758962125109965,-26.288718208025948,26.477042424451575,20.218978979338605
3280.0,2.5701625418478313,12.708306809142686,-3.3333350018047914,34.90604409437796,-14.188335813929804,-15.612523482937823
3300.0,-4.645775043685437,2.813608385775013,-2.134760632704471,-36.25775914243745,1.1674129039560726,-25.07146093297549
3320.0,6.273103030925139,15.854640289110217,3.8593152884647592,32.915093709117215,19.22236193240054,15.299634869008589
3340.0,-6.132786350743994,8.649012911720474,-2.0631982432422737,-26.864383630105387,-25.848496499116184,23.838812580320297
3360.0,3.680785795177267,10.833454287583542,1.5866396679692643,10.462100617800782,19.4527583342822,-13.58486407601294
3380.0,-0.24597622120532414,6.990681831276836,-1.9704623256069997,1.2483529330607015,-2.3205660592493524,-27.902126526221426
3400.0,-3.611376016262996,9.070867629837537,-1.7281554237505161,-12.14837769837368,-21.77289685684323,6.2658903835767905
3420.0,6.106714167279987,15.637831863710328,5.147342287742042,19.228919779280588,24.809003125984415,29.691676917944456
3440.0,-6.440626715621515,4.72985538115087,-3.05157452616811,-31.381125686503662,-18.60032072358518,-1.1584761932825844
3460.0,4.9941004686042065,12.331943884180266,-1.479777516854368,36.701112079241334,3.605141080444623,-31.29279835542043
3480.0,-3.053247091766533,4.806497817624198,2.344983883883326,-34.76429771480822,16.02938309583235,-0.7916570845156976
3500.0,0.8500456354725084,16.54788190712508,-1.505328181861378,27.909908099501152,-28.423788941947024,27.57355945397704
3520.0,0.3003800459203136,7.432580583714474,3.338390328977568,-19.75408409116817,23.73725837027751,3.78453022004651
3540.0,0.33289203956774965,8.510641189854637,-2.4185522769418712,5.448024488629504,-4.013804350330875,-28.340287217209983
3560.0,-1.0596086068295287,9.9600220507693,-2.4436699945808193,2.8782986924228373,-12.546530392371618,-7.855952716797165
3580.0,0.9849681707993467,9.494244557646775,5.280413730302112,-20.70957816688502,22.94076316979826,27.049252313460524
3600.0,0.8269175832667709,14.5256916807827,-1.971589080960254,27.495859599331446,-21.124054854590177,12.391848682561957
3620.0,-3.098050703831362,3.0313378255039902,-0.7094441264541357,-37.20547270248424,7.529377896746139,-24.446433849311752
3640.0,5.644807449110296,13.077001227704804,0.0790484555118666,37.026403232454435,7.016010793337008,-17.479986546585245
3660.0,-7.180741816038159,7.112754387184156,-2.0026458738544806,-33.824041305234886,-20.606100202805678,22.43799227927629
3680.0,5.749876382909412,15.13721158601167,4.5102835050042485,25.381626701503226,22.76143931003858,20.43880468122564
3700.0,-3.1888051892546323,6.046022420063587,-2.6634472557962594,-12.149479515167343,-7.78755620853633,-20.062333115929196
3720.0,-0.767561599818919,8.185848716142505,-2.6534448281919634,-0.2647505302472196,-5.351549765417185,-26.157009612494036
3740.0,4.018802104687451,13.119284971365284,4.021385430934819,13.654635339559286,21.020092614012952,19.901985668754495
3760.0,-6.044426099171319,8.745940690058672,-1.3961668929889668,-22.106909168745823,-26.68475723136911,26.146398839749768
3780.0,5.707469233823534,13.156410306665151,0.7136101019228263,32.54480377275207,12.527692515464844,-13.832680484074599
3800.0,-3.5932612622031668,2.504996647158824,-0.8678827857046807,-34.05357229818903,8.757569289609345,-26.991574078616487
3820.0,2.2202759636568428,15.229679208586829,-2.1660681799766195,33.59032524403261,-21.668541749155597,6.643155812728406
3840.0,-0.9094315287314834,8.177416957965889,5.3246309045308164,-31.238241588657445,22.6615638531126,27.989199897674638
3860.0,0.6867649622045356,12.197391389376824,-2.5041726239470763,20.226434088943734,-16.78187363427663,-6.107002501335824
3880.0,-1.1271642855863853,6.255461622417418,-2.660379305631253,-8.060546729498785,-4.710777020123404,-27.17777354157552
3900.0,1.5428423898218975,9.18583069560566,2.7211144946858945,-3.6910162006734297,18.6126436656262,-0.7286077112429014
3920.0,-0.6024436902554726,14.709834984102637,-1.3622779398594222,20.674900489589266,-23.89139390854982,27.70416051393384
3940.0,-1.6971084821333255,6.123383314938473,2.3468594228425688,-29.782468176323626,19.36339631497414,0.9644763970306522
3960.0,4.4416252924745825,12.071966015837278,-1.6857343862440124,34.21305575521161,-1.6800190494824003,-27.982878312824678
3980.0,-6.7696176013815705,4.4995870323657625,-2.446387087706975,-38.46298581850573,-18.783313265021793,-5.449375528104781
4000.0,7.301980283307167,17.025331047539776,5.532579333904386,30.59222683067758,22.579836514035613,30.163962049377567
4020.0,-5.2542032196711865,7.406956006367373,-1.694326043076583,-27.57537100425905,-17.961999494210712,12.236347135598615
4040.0,1.864099143988441,9.662963662545936,-1.285537894432066,14.031731256683218,1.4218659382431247,-25.806198152947104
4060.0,1.9256080479152702,8.572467845143752,1.2431471565589856,-0.724794117397237,15.982135068188903,-15.527711553011288
4080.0,-4.743101280284234,10.20495354380128,-1.6905210697765611,-15.462900894677702,-26.96765872841343,24.280909329437183
4100.0,5.479256131083742,14.749618456847115,3.800519336773846,25.515468465222707,19.5084830164907,22.35493018603811
4120.0,-4.0556786966321035,3.507432389380208,-1.8936310626483766,-30.26542241514676,-6.702385456802549,-19.709955519174162
4140.0,2.854196114384786,12.689559608823805,-3.342256968314952,36.41631278867317,-14.105375985756861,-26.81687493353357
4160.0,-1.402872255065756,6.52044872571246,4.298004810778138,-31.817756454756832,24.665471321806343,16.949824863816325
4180.0,1.0613185146925008,15.897398654530079,-1.5454951516522075,27.615305332403395,-20.880729050943597,22.46033166348287
4200.0,-1.732958525935524,5.970142904151366,-0.04332766714031114,-20.2128362153199,4.992749231944166,-13.523338765766551
4220.0,2.2921047045977003,8.27762808707294,-0.15805057769111994,6.739399039107002,10.022704064112684,-27.27794609258161
4240.0,-1.9948078972087013,11.729429634572679,-2.462527737032617,9.739001310939715,-22.310470777211044,10.440154248850952
4260.0,0.13679702062440752,9.60390134321626,5.234722653867524,-21.39876858546382,21.14971264050347,25.119725896146257
4280.0,2.540922500826431,13.428908477178334,-1.9016094991436097,25.98413146347493,-5.806493793032212,-5.086372470415628
4300.0,-5.759978123346532,2.6464736258449575,-3.5954617963118896,-31.79385963400388,-8.17232423995346,-27.807731503690032
4320.0,6.834534310993388,15.13361439023686,3.2775587021606096,34.111054113903,24.292067098330065,1.5515251550875004
4340.0,-6.70397025065674,7.94383467887422,-1.4568394952053607,-29.370692836746358,-24.30301557873804,28.10183128569084
4360.0,3.954494994432436,13.311266272617338,1.6977813049340498,24.421525017789463,12.06553772251245,1.6716293461088236
4380.0,-0.9311250070595141,5.24269950269739,-1.0625074404772938,-14.736220178207875,7.461411382480603,-27.697556165436986
4400.0,-2.6357378859885956,9.330909709630918,-3.622987398110808,-1.7433315656974275,-24.25566780053008,-3.862954168151591
4420.0,4.999112050351655,14.3719521804929,5.206333544921254,15.43334971247682,24.263770325678443,29.132804734694936
4440.0,-4.503500941328115,7.352877004172543,-0.9578913373230391,-26.58457039070916,-17.142037252123068,9.371929424602675
4460.0,3.4057159806503488,12.511852064441307,-2.269250670221789,29.734259623953207,-4.469261265788132,-26.04001082253922
4480.0,-1.924072716159743,3.392049019617382,2.0257719921789126,-34.96376828222047,16.76620259869667,-9.978803793968755
4500.0,0.8863670571793141,16.725161538456863,-2.0968702683758513,35.07275580108312,-25.848357753975517,23.59864579388183
4520.0,-1.93331274479839,7.314674528784445,3.3206226436441786,-25.811717272420328,15.298055949189578,20.142887206995297
4540.0,2.748753405445873,9.707143385384938,-1.0732369695048551,14.43470661717229,-2.7956284679318233,-22.111140118323924
4560.0,-2.580471368691398,7.53444334897719,-3.8557984473586693,-5.503930351662664,-23.048813293519146,-18.00157291851803
4580.0,2.006453791078102,10.260084385816988,4.560905528185462,-6.963664143605226,26.32717253976506,19.909355462043685
4600.0,0.07043234605544446,15.192912807348906,-0.5038037374670987,22.155475875574137,-17.549841696415356,25.174706315136085
4620.0,-3.854928919728575,4.281394517136101,-1.0231520216653116,-25.901440247988646,-0.8776936140592644,-17.442368008967453
4640.0,6.369155484998318,12.065213589937793,0.3514657580419236,32.14850586775401,17.492691717490736,-27.577005015377914
4660.0,-7.562349350545033,6.017280790971078,-2.6239666643894837,-32.8867412007717,-25.25890315302886,11.505080569997403
4680.0,6.15689094889657,16.386344767163056,4.418610766379286,33.13046428157405,18.88305493165152,27.605664399179965
4700.0,-2.4058243467020026,6.037078126099652,-0.8451175763846801,-23.64775321853978,-2.372059586058713,-6.731672880312052
4720.0,-0.3595705479563801,8.902968745318466,-3.9650714645276577,11.663751498864803,-18.47926533392618,-24.955837219114258
4740.0,3.4213821851067268,10.395530162090958,3.9398570579145678,2.893786357886015,24.976427244222204,1.7110524835265049
4760.0,-4.39014492024744,9.997236944909762,-0.31114024236145654,-19.23276462921471,-20.319369209364048,29.583702523936214
4780.0,3.647524216390464,13.425466000167436,0.6651357984445346,26.44607023964858,6.65637639189502,1.464048896840449
4800.0,-2.604002448498606,2.68040690045078,0.13872838162512807,-34.26661479624943,10.62678326212018,-27.920526838750646
4820.0,1.6420339595665587,14.534202610042708,-3.7197481457482913,34.73389255558307,-27.46624408109124,-5.90781381328405
4840.0,-1.3069264606341942,7.793150307560919,5.080002063865505,-33.545517167553484,19.302346884099336,29.826513385077906
4860.0,3.0666564412163084,14.13865670512912,-0.4458493430580299,27.09118457490778,-6.833932996738732,6.944586111832553
4880.0,-3.576883415827689,5.033451217494517,-3.9379821287217136,-15.12189996647731,-14.256840974729638,-26.01702791852326
4900.0,3.4654172928759337,9.09482426877768,2.6039281675720565,4.648781929563185,22.69494642913638,-15.680641974660276
4920.0,-1.169522746423672,13.514968329369845,-1.5052934705084005,8.169410866623362,-24.34624526080186,26.94358509764037
4940.0,-1.879112896504527,8.601789533701409,2.102009833806687,-18.94733471244784,9.161531823216674,16.533599347449776
4960.0,5.4576175985745525,11.97376553911749,0.04115363199156072,28.978901042756124,7.115926669256144,-21.327448950666156
4980.0,-7.153996833663063,3.4534567162153027,-4.566954935178893,-31.701562451698134,-23.51186697770268,-23.345645770311705
5000.0,7.1317239573509354,16.562797332317558,4.903201455993189,37.163573482803834,24.025600726331657,19.219963747501733
5020.0,-4.996319069718303,7.517621043565596,0.019662583663485514,-28.71608310032726,-7.714170709768423,23.63813106745748
5040.0,1.505097689046943,11.221701425445598,-2.6932672197528635,23.523261312458413,-5.45806619159101,-19.337241873388905
5060.0,1.5045796508636986,6.287463101915108,1.2468986521301677,-9.887794446605305,21.91858457269212,-25.38462858648422
5080.0,-3.485792336258358,10.69528373196369,-2.3719645865950048,-7.534837282433216,-27.05277702580063,13.486510743779462
5100.0,3.6445031495949554,14.244678278722306,3.538073536948002,17.815788806949296,12.58240314463831,28.966094216795202
5120.0,-2.7985944039544193,5.40240498392962,-0.09645254708342627,-24.62055777377407,7.437782173384369,-8.050214015785834
5140.0,1.8326279056488723,11.81531641556119,-4.866444531501554,32.624487356064535,-22.647062816215538,-30.965414301699383
5160.0,-1.6527669474602762,5.044660198535907,4.1454797075622585,-34.00332628466076,24.75750389531775,4.17363620312533
5180.0,2.39111350140456,17.50549496113086,-0.14924372099810518,32.1375624276072,-12.547996230007996,23.9164699075031
5200.0,-3.8913147678856514,6.2023466899698665,-1.003912472150879,-24.85889963712384,-4.278474683871036,-1.967072522807512
5220.0,4.159488326691304,9.344018872053116,0.7821713253921722,17.47127381823665,20.741288846731315,-30.94944611468141
5240.0,-3.0688891836096097,9.023471053872276,-3.8048149004844625,-4.83937641073301,-20.9056855171665,-3.9263553099995696
5260.0,0.6885015960773175,10.751008863559322,4.378405412729478,-8.457752915941374,17.22094101100999,31.811873059585835
5280.0,3.0726810342980624,13.60803243182008,0.7890181960744115,24.506835125408315,1.3701485892338403,9.38270950034431
5300.0,-6.152581892455691,3.35449264432309,-4.760785892280624,-31.573785916816444,-19.13045565648031,-27.189923787547286
5320.0,7.881865719010898,13.770652396722884,2.4921146076154312,34.17070226416245,20.609538670049506,-8.99264256327615
5340.0,-6.850843505009854,7.023809101766088,-0.6817991958691321,-28.451671183925562,-21.189037458316037,27.35096021966435
5360.0,4.378199851208137,15.403384420033564,1.0361618517795883,30.628760341848114,-0.50267487699136,15.482578658232361
5380.0,-0.5724221678961561,5.06511306441643,0.8541290471167662,-17.230990045221226,14.966518965363024,-22.753758048548946
5400.0,-1.9270474827515913,9.161333952860197,-5.048136344047405,10.366140384403675,-22.86225910889383,-18.137236322463483
5420.0,3.1202068675760817,12.733642969579979,4.076345978762097,4.868942356974793,22.855561341132415,16.91326716556117
5440.0,-2.567145302769625,9.35720092069525,0.5698544712063016,-17.595746924124217,-1.032053908791001,25.724002608031423
5460.0,1.709206454964499,11.820204507125156,-3.1708157648293094,23.72051183345905,-16.187030806131542,-18.75785786215456
5480.0,-1.3316075148382185,3.269825187195961,1.5262928574812147,-30.351574391211397,24.02312630996036,-24.541820741767527
5500.0,2.200618684291158,16.141071235100444,-2.1731150315642314,31.5281863765237,-21.29148268643814,14.377854976479213
5520.0,-3.3967407660207733,7.58256528934482,2.7300891612404232,-30.02002383515771,5.507536878498031,27.101197590361995
5540.0,4.423481687980119,12.226284383295289,1.112513130853258,25.276241199216532,10.358527512045981,-7.9488561514392995
5560.0,-4.677273849029541,4.972854370865432,-5.137580591140564,-14.898869643985956,-21.85857260120728,-27.149437560829867
5580.0,2.6504695184144222,10.635627861642643,3.4167177752849365,2.4171012853911042,20.080894461226702,3.5975027134799737
5600.0,0.2226385253756854,13.84818132838216,0.9834294918353076,12.573037555481665,-7.850968953972446,29.231278225069627
5620.0,-4.191999027678513,6.224415213344267,-1.4816592409728202,-22.806996501535306,-14.056987157722322,-2.423123191030452
5640.0,6.8932894838256225,11.345982377906463,0.9705944800976951,33.079670633468844,23.72099573025523,-27.402491214758157
5660.0,-7.1752897971202225,4.508947857527838,-3.3090993284326946,-32.76880012735367,-23.745411437352526,-4.321907905756586
5680.0,5.676483922290981,17.000814297932582,3.4909798569381914,33.54260044334885,7.979695779535033,28.959237934584646
5700.0,-2.3765988252298222,6.2299448853558115,1.6221521731378727,-27.93139347863454,6.962682550608908,6.335794924620757
5720.0,0.020847028219647623,10.071295913846312,-5.218767457909726,20.62377094823971,-22.65088420273566,-29.941941167906254
5740.0,2.192784796117364,8.089300502062185,2.355959389001816,-4.970363060151872,27.924261332914227,-13.97995869925413
5760.0,-2.3110207717922755,11.18609399935156,0.09548252828507652,-6.125993105666411,-11.616544852416284,24.417075039939167
5780.0,1.3962550045977113,13.282452557037654,0.12335224944157086,17.282133002699922,-3.5639889791944626,14.974942582144896
5800.0,-0.65529702626305,3.877911892104458,1.0755524981214721,-24.013803324270594,24.16769388354421,-27.047839246637626
5820.0,1.2553804131134427,12.750404695429003,-4.166010121583949,34.14892779234621,-23.844988720372648,-17.78997361697543
5840.0,-2.844540901218482,6.70452016731338,3.560722542417132,-33.20809187075389,16.598925143157913,21.44725431634935
5860.0,4.654718719897909,15.770930191174255,1.8119273899798383,31.61466676562356,6.6278991895120285,23.355099173982367
5880.0,-5.336631734997003,4.357408537463344,-4.080386830606422,-20.476767030561852,-20.005145609999172,-20.992178642383916
5900.0,4.692592486931681,9.735818499151307,1.3811608597228324,12.395948026120323,23.43506415607289,-22.067524158953706
5920.0,-2.1626108745707566,11.47043951064999,-1.176376128291982,-2.8760088365494854,-17.5351518348686,16.964737765982715
5940.0,-1.7251391915539707,10.55998757676497,1.5331711907245023,-10.630191942363375,-0.660264111079937,23.407285016853187
5960.0,5.006832964900173,12.304713650112852,1.5793656961741787,18.91064219273855,20.95348672699591,-10.58047099440138
5980.0,-7.110720105851658,2.979756306898644,-5.224058387777451,-33.67586013268344,-24.59586022274874,-26.99074340620418
6000.0,6.457886918511824,15.526431052980655,3.2217313544430306,35.93533604258278,17.75409770431303,10.721245495897843
6020.0,-4.587042449114994,7.197838330004772,1.881175315324417,-36.91017624389533,-2.3133274171237814,29.459067535340132
6040.0,1.2611633276416936,13.622471712700486,-2.683751565979815,29.874983652351254,-15.334671380832363,-4.674683494931576
6060.0,0.2577258412182338,4.48488663803225,1.5247241722854554,-16.455591382079664,25.96822958216608,-30.78167293781663
6080.0,-1.4913696268677734,10.8922895520649,-2.773092709413369,4.350332743819564,-18.874104398127727,-2.3363974778518983
6100.0,0.9160154577677853,13.449539093121905,2.062457563508956,6.366283346907422,5.5597403502260025,32.076494118457106
6120.0,-0.6808967648290343,7.640541569383935,2.382024885819316,-18.41912126426356,15.740689309401235,6.962835136800857
6140.0,0.7842312711193635,11.661502531762723,-5.50342604386299,30.55090366426232,-21.749099389392125,-27.99107582654514
6160.0,-1.8336164583827548,4.227024751391647,1.7486720650605947,-34.0490027236828,23.355156225324883,-11.607189055881403
6180.0,3.845007099332531,17.126798260514928,1.7267024664418695,34.46327036408256,-5.369051640452503,28.532618574641518
6200.0,-5.638439324742041,6.774845688192071,-0.995234107653996,-32.370570846613376,-14.726550127429823,14.01917412181815
6220.0,5.701822918364383,10.70265672725062,1.641766669642426,22.01027485426124,25.027883961555204,-25.648859878602128
6240.0,-3.9885566343260224,7.031253669756808,-4.706792820022126,-11.078960404202252,-23.35897475361357,-16.92708868127282
6260.0,0.88742158846572,11.842885700154808,2.4597070925845395,0.8027460933941217,11.16670532098289,26.18447075569653
6280.0,3.2005240995784017,13.349072302741273,3.0291787440927505,13.147214624834549,10.38607877383907,22.68415329873506
6300.0,-6.149759931564465,4.8601705626411436,-3.9801293849351445,-24.871377618337164,-24.570457457252793,-20.92501475994077
6320.0,7.042201692320252,12.503528935038942,1.547335827239665,31.33349782420325,24.73302040255511,-23.693775425297947
6340.0,-5.590356509166957,6.204795603665175,-0.4495403690641684,-37.09725283846988,-8.806586268468429,15.578992689179046
6360.0,3.052264670081376,16.726649065120046,0.542227871949361,32.648761838983326,-6.744291116402601,29.361215954785703
6380.0,-0.7407317846932905,4.4901152583050985,1.9438705311746167,-27.01984102600909,18.885574414881017,-14.272919619201748
6400.0,-0.5203855387786931,9.660570007860247,-5.382414786737841,16.934528101505354,-20.60121891682047,-28.573534029653104
6420.0,0.8976113673927206,9.949001001726039,2.238550936764678,-3.3419927922735146,15.707410290439302,12.61709543187083
6440.0,-0.3900647213052272,11.026634000708047,2.7276863479693656,-6.578552580885143,5.8076558162269185,27.015784066112193
6460.0,0.005268904323839384,11.981134499466664,-3.357556185141294,17.166220255854768,-23.59813892264352,-2.705381412831275
6480.0,-0.4931932258165784,3.1558673828639736,1.360337584147183,-26.894278816253745,29.158189018508907,-34.014817069421625
6500.0,2.763535870554461,15.068952574713421,-2.1106545251447324,36.25987803816477,-16.718005060575447,-1.9045938030188065
6520.0,-5.222426018939374,7.001941975267326,1.4853957701751126,-35.52026241152992,-2.11778614054034,27.188035792159702
6540.0,6.235004366858009,14.53287433173944,3.3003210896361206,28.574977756904396,18.401533635420595,2.624200641957115
6560.0,-5.71949505831869,4.115078089099077,-5.853299370704512,-21.893195394017013,-27.233157712224923,-30.775478626762652
6580.0,2.809558589875875,10.783029953590887,1.8608713897241345,11.977831918741261,17.148409940762964,-4.031670324298845
6600.0,0.6720262514407764,12.365239447486067,1.8534028851138897,3.024947429657699,2.2984529746409583,31.01557602444194
6620.0,-4.356709385821523,8.755851254935187,-1.7927457586467266,-13.123185761328468,-13.590883585408879,13.428585587716066
6640.0,6.5036043112324196,10.97619922755157,1.659251664742225,26.744453402907695,23.90810451401257,-27.232159713199472
6660.0,-6.632520809753388,4.070687828645278,-3.4380259089354728,-30.332998295966632,-19.554598869175035,-14.581338717517182
6680.0,3.9974708457860464,16.747525427223785,1.820242964300398,33.06071863651904,-1.8631896680515452,25.751475677613023
6700.0,-2.307251535913592,6.310439109114758,3.4867325672861353,-32.37875078204204,17.592896539885643,15.084315303291518
6720.0,0.27970900835893175,11.704856547231008,-4.893126530678344,26.001961164897672,-23.218076255439044,-21.259881610312522
6740.0,0.16672170223681587,5.7567167235955425,1.1052637863256658,-12.131708858397957,19.11523758837255,-24.53554886364104
6760.0,0.21315872807294364,11.899692444778438,0.595171373537663,5.968423916428328,-0.8841355912085263,21.23080628814215
6780.0,-0.5776738614650246,13.084080654044874,-0.560703636099883,12.914064983033114,-12.727046646181027,24.485793419150816
6800.0,0.5381712521149511,5.4060483827858254,2.7333572795566874,-21.235386958648565,24.005626728517257,-13.849141702311321
6820.0,1.426329147350225,11.746616360140546,-4.6865184470438175,28.542796194679337,-19.233637781863578,-28.008359969993517
6840.0,-4.028335703840034,5.940878933102073,1.7486565434360668,-35.96005150913464,6.832230600922576,8.804231222227152
6860.0,6.123420269991279,17.427701909919065,3.3995162793393257,34.277121571467454,15.157901190292044,32.02785408646272
6880.0,-6.760853598966749,4.978262760253547,-3.7875887075727928,-30.204848266203477,-25.721004800837225,-9.83629351444611
6900.0,5.776017828348071,10.540587795257919,1.1019162476997335,21.807608098612384,21.51903329905251,-32.13048849537501
6920.0,-2.3116696329743487,8.729642546451071,-0.9115449325001359,-11.145734038117165,-9.701946094160537,1.242142712750665
6940.0,-1.557406117441957,12.026528181050786,0.5726453985031048,-4.303546550265415,-9.80915723257345,30.61536547883906
6960.0,4.855372538560926,11.941052109862596,3.2342277169424376,14.885806671037843,23.716128974549378,-1.1752221423935454
6980.0,-6.024159577918087,3.540663958821528,-5.299044919656306,-22.956978248356855,-23.987681678370684,-29.205203006685274
7000.0,5.404620506403796,13.81513141837932,0.8865891721268986,36.09133567621059,4.329307355677885,-6.819654012713347
7020.0,-3.2669442321200033,7.029918089780265,3.272251630155248,-31.10110020857475,10.346669210425059,28.158646130354416
7040.0,1.946553544797761,15.304875024455638,-2.6684129625865123,31.691292241216438,-26.584298936151722,9.471432015079765
7060.0,-0.6974305751397083,3.5988647806160894,1.4141497115419541,-25.46393906833676,22.894380284367706,-25.307383507144145
7080.0,0.5227390943138523,11.090049355811106,-2.396912626428101,13.047272881669695,-12.880118861312356,-15.39040338949386
7100.0,-1.4388410672651035,11.417951953933176,0.6794374420256706,-7.125758156890187,-9.218744706365355,24.78707848017755
7120.0,1.3005190931824597,9.941440408195758,3.8804623049981593,-9.614656360868242,21.677374222504568,17.975147650606537
7140.0,-0.41757786859292023,11.499738663583036,-5.063429905777073,16.328709140144028,-25.65678611503257,-18.31736550689547
7160.0,-2.0846367213112624,3.691815967111404,0.5239118340488949,-29.094269379992266,17.768086848870666,-20.785440108259415
7180.0,5.246569284964964,16.303634504841956,1.8313294507229927,34.26784335197292,5.778599853867972,19.189495160269484
7200.0,-6.772205417400451,6.653519055909814,-1.1691417977247298,-35.26998958265228,-20.302384456483058,25.70014449536873
7220.0,6.629311256453593,12.692251239488948,2.59419284599589,31.113450144701968,19.687645320028327,-15.411607974683138
7240.0,-4.754573062406583,4.704043158306916,-3.7100521647729643,-25.104607810061417,-20.315709430450823,-22.28649225823744
7260.0,1.1867730817459927,12.114982818765876,0.7829206827828236,11.093701670167949,0.9007672767656445,10.001702948136124
7280.0,3.4167014037129304,13.090039540327622,4.179273974228352,7.278870522075083,19.23797906895999,27.344686008744674
7300.0,-5.2766601275500955,6.679055937610505,-4.008592319795516,-16.9153068930949,-23.865329967589005,-11.211930461561806
7320.0,5.55791884057012,10.938725561402212,0.35765795630712527,29.920775398216588,20.39891038267074,-31.37799009954525
7340.0,-4.205094190571359,5.608406206397078,0.1837744596936029,-35.95813526587,-1.5299081797786633,8.143751428570994
7360.0,2.5772351909550277,17.14862524189157,-0.07304759857707177,35.74366342683982,-18.03315012417806,29.534977057621106
7380.0,-1.3680567008944227,5.338949870249299,3.511377899338685,-31.450640676142047,23.203450207922756,-1.4398284170766495
7400.0,1.1136805023826413,11.050701456477416,-4.684944879198397,24.540487969063257,-19.063814746834364,-31.823408372596973
7420.0,-1.5019102854879722,7.3031717474867115,0.1483494297438375,-15.995997362284838,0.24850215251420948,-5.3232227041991305
7440.0,2.2310149117278852,12.601700731437713,4.479171169204923,3.3137124255938994,15.71341073998705,30.39519946691706
7460.0,-1.5995523666242133,12.252487730942407,-2.7159262322613555,15.233924856833475,-27.620135800858137,7.439030573458542
7480.0,-0.20979798681195744,4.293621505542817,0.848429110499886,-18.77798661661047,19.118978516752296,-27.123701790273383
7500.0,3.323580494133073,12.781624604513576,-1.5624760085632123,28.020277743950974,-7.435024989487964,-15.431997967636656
7520.0,-5.868863303007458,6.988527759530183,-0.2510818961769615,-33.50809546014405,-14.577608646634445,27.76433797647429
7540.0,7.10940044364409,15.895460036324847,5.009085442274021,37.229429548905244,21.82886871841994,16.105794967966997
7560.0,-6.3216223400748595,3.967644509153571,-4.219330684099148,-30.21131880049965,-26.815171033525914,-21.86628186050649
7580.0,3.4214020833105496,10.994520284795849,-0.43472686893605983,17.827514737018124,7.565415512172476,-22.41157400466304
7600.0,0.5060057095950663,10.336961344905308,2.9370503229733145,-6.749222834067316,11.411466826408363,22.00395407271839
7620.0,-3.715510651468345,10.87752251603296,-1.6180254856705416,-4.354065588703817,-20.313670381836108,23.07375354726194
7640.0,5.233628016975988,11.112418439744678,2.0250225529442365,17.35572089222648,25.82195159292215,-15.823906087775143
7660.0,-5.264004588294371,3.8972659933237845,-2.797047531176396,-28.7304913459967,-9.53856166667553,-25.36294998139944
7680.0,3.294624545667953,15.903284087228329,-0.2443501982947634,34.27211422696426,-10.319562882732301,9.584401858730242
7700.0,-1.5678447425186057,7.09604855388668,5.181702262248327,-33.44219967847741,20.00504909224592,26.7376091594484
7720.0,1.0314935920275148,13.634297124788628,-4.045715375599009,35.80473468061962,-24.404202837909637,-10.226832962202423
7740.0,-1.9476663495113975,3.846498221402388,-0.2567307537231761,-26.930114540467024,9.75599368242276,-26.67361101893212
7760.0,2.3907511918604483,12.039193784912221,1.3808965259423445,18.50924534772726,4.670437086290875,4.077638308000809
7780.0,-2.633994440567575,12.432634723660014,-1.2172364146471708,1.1626229602681208,-22.066448171381477,28.82436631007367
7800.0,0.8073714746853998,8.114301685579367,3.3578847746807927,-13.059775926589055,21.47238766574497,-0.8988676332640849
7820.0,1.2408410554423874,10.567036922243757,-3.9173345584456887,23.46567516174501,-17.77166102425701,-27.12451780290036
7840.0,-4.697863802194482,5.324401329844972,-0.49684772628544144,-31.0901459263148,-2.2027825744833396,-0.8365479783210357
7860.0,6.7779052520013305,17.083104796881905,4.5664153459739145,34.22242169290038,19.450452447423135,27.36794470645634
7880.0,-7.52629844673617,5.337830939661022,-2.707487843175594,-32.58086573318784,-22.542035089308744,3.934887078709015
7900.0,5.670640019267716,11.257132525892773,0.011700607130271434,28.082215113696545,14.545813884873628,-29.167937801266547
7920.0,-2.235333293364098,6.195066260054995,0.11605464199171367,-21.89703048144439,1.7253616723281742,-9.724593475971083
7940.0,-1.7420747290434466,12.891423105548686,-0.9139623046887615,6.33417511494344,-17.48690059547149,27.416192966290577
7960.0,3.913149377750802,11.76402092599647,4.30210686977325,11.061234878814865,25.340785309787606,14.356031450226071
7980.0,-4.494896310255325,5.024465572012868,-3.881101888645701,-21.484955088536807,-17.82802136768768,-23.807417445639437
8000.0,3.803276091609062,12.531535222479988,-0.8575127203787178,29.386205205048434,-1.9942861364457314,-17.574590701938973
8020.0,-2.3428980108225046,6.798277858032234,3.626606987174931,-32.844261671970024,17.829193525382,20.21329250332181
8040.0,1.3134437032333102,16.798758207009353,-1.914425587022888,32.28039804721958,-25.668219609601355,22.411469896055493
8060.0,-1.6884988629170128,3.5473637539258758,1.4076140085012452,-28.64313149667187,21.223829098567347,-15.997307913899302
8080.0,2.6249388206492092,11.223887927348228,-1.8373312781442344,24.457339704739383,0.9715892567826838,-24.66302069004668
8100.0,-3.426810860854794,9.440740369464669,-1.0233901144460915,-13.726907079122041,-18.10244525499906,15.404781054798635
8120.0,2.888353023069759,12.25283848498381,5.329404653502231,-0.44334200474479474,21.515233696123683,26.446002237106473
8140.0,-0.9612579609390276,10.881252748830619,-3.671683630513236,12.889780826864301,-22.285245494316758,-9.56318084111146
8160.0,-2.5444901445267063,3.6749909003355357,-1.2407734835364521,-24.407274072076447,8.635408840421693,-28.323358731021557
8180.0,5.732719468954158,14.866410294960993,2.4072773912231478,34.04217588110032,12.371740110831114,10.193139914421067
8200.0,-7.487909901277801,7.523137938106297,-1.7171405257501122,-37.07732824567381,-23.487019683737305,28.94784990810226
8220.0,6.967988457796828,14.366309870927841,3.2055895549605538,39.03128610190833,20.275254365521267,-0.9163799598535729
8240.0,-4.376998874229368,3.507716851707095,-2.8600455794874136,-27.838269608927593,-2.9429468601034543,-30.16855964299362
8260.0,1.0350457846434553,12.11356983999832,-1.5659161552783212,19.641063622952355,-9.992282928548619,-2.1025355047420553
8280.0,2.2342678515135526,11.5012932645644,5.093031143900059,-4.880633891788854,18.55691890535209,29.72322720702736
8300.0,-3.7739087178025867,9.19191380279508,-2.244672144692198,-7.229582770996884,-23.487173887564545,5.832041897153577
8320.0,3.555954475458552,10.046469658132782,-0.6342034239173318,18.22886192324254,10.622694826638426,-34.22859313026118
8340.0,-2.3311766577236885,5.176677688496375,0.71559283712922,-27.397892730485566,10.023146133403511,-9.114772214730824
8360.0,1.6766622312997044,17.242972928993773,-1.758854307506558,36.353364984076414,-25.645013506397934,29.294669835629307
8380.0,-1.4926362819245422,6.432732705980534,3.9844872541830565,-35.683340962771624,27.130146812651812,15.946237958592043
8400.0,2.4699258510583584,11.657899105494437,-3.674731135083696,31.180668271531268,-13.61014712195637,-25.436161822281285
8420.0,-3.7963587203121656,5.317994004125302,-2.041791386440773,-24.131869802266365,-7.006507733096152,-21.359938165947117
8440.0,3.7810847955427063,13.387622521430696,4.636624133802232,11.708354077366867,25.497713117126906,23.912351514333043
8460.0,-2.999977323567127,11.811546418829511,-1.9931755204638262,3.6510326353107274,-25.55498501413543,19.457443781812
8480.0,-0.1730364464623938,6.136241127195002,1.0373077917195972,-11.138138778499385,13.224517169358828,-24.04025205463288
8500.0,3.794477754589398,11.222663912400789,-1.053538220128382,23.528888328049664,5.550142446536911,-23.372509796132302
8520.0,-6.745358077476245,6.893527025917578,-1.9544299981223079,-32.96436178221721,-21.750593915537518,16.023737899580095
8540.0,7.809810124665921,16.672199564974008,5.252986440147729,31.640969280176076,22.713764430011963,27.80005978873901
8560.0,-6.362830754594981,3.9486173977374204,-2.9055514981324344,-35.88210244268639,-16.204278875015167,-10.048769139267055
8580.0,3.13677408797391,11.395007557829581,-2.035916069517487,25.375981597653904,-4.07181851785153,-28.778143296173706
8600.0,-0.07146629370070548,7.905986407886555,3.0641622511022715,-18.646335186737545,21.055848744773762,9.66182096054437
8620.0,-2.7035075330494776,12.923429898918533,-1.4791650634300109,2.2250809937395695,-27.452019181377516,27.260995190944147
8640.0,3.261331656628302,10.880141988136153,1.8019599231146968,4.858748876874797,15.3046529394065,-4.595715794457164
8660.0,-2.6587280582162474,4.6033978360670975,-2.2079578484427205,-22.939686340971196,1.7215148868543,-32.4141418642147
8680.0,1.2927493852797487,13.864182226560132,-2.418609282108161,27.892442921382365,-16.817698118908964,0.9768755593073531
8700.0,-1.3029553537407854,7.449318014211186,5.358011385635686,-34.48607052478903,23.081688368410227,32.399179551139625
8720.0,2.2902661782500977,15.131207893525868,-2.3691109762234994,34.6480368293882,-21.772504911938093,7.333891226949667
8740.0,-3.7058540367998063,3.5652429676583792,-1.5301150963104015,-27.680275541784738,2.598201043223728,-26.262801370161924
8760.0,4.567844092757692,12.095745172076592,1.5138446900695326,19.959044477671796,16.140560422524455,-4.641133507153505
8780.0,-4.3879514793346335,10.784822015147283,-1.960166323548192,-11.69648986952286,-24.592724447088944,27.226590301693196
8800.0,1.934371361154639,10.303762214060677,3.8031639951451135,-4.856608210518316,19.960621335580058,14.895892417944056
8820.0,1.1697388277979202,9.645310065165303,-2.32875335608558,18.488019292546067,-6.101045689037932,-23.472931844342497
8840.0,-4.899744741288322,4.711597826780567,-2.856602375819774,-26.074301019823327,-11.620673568819138,-18.367751656433374
8860.0,6.881557179515538,16.46177288975486,4.761376103397271,31.638002468748848,30.07951690375389,19.254374355347277
8880.0,-7.252566513305484,6.6064559642525165,-1.9685457229453542,-34.877092379339935,-24.31799757746403,20.54569077173486
8900.0,4.894278572314224,12.921950325430585,-0.2792592362058673,35.148612102892436,5.577651822316627,-16.07745292820792
8920.0,-1.8728268412110083,4.1719305119252725,0.12714222528990665,-24.59902375615691,9.239826627156527,-22.15193079332314
8940.0,-1.0104359839517807,13.352962946457538,-2.52461748490982,14.599436053559291,-23.1597095390731,15.369925210761927
8960.0,2.8381793737556995,11.352734818735982,4.953303420959874,-1.7238259637707551,22.443706328923838,24.00693331747641
8980.0,-2.3706634245112035,7.2984125004483085,-2.1375436625767197,-10.01080538430562,-11.22571829354266,-9.5122957624046
9000.0,1.7052283342158925,10.70907367309055,-2.982146576000619,19.12757755522289,-4.421074598631902,-29.87346414913212
9020.0,-1.2426357001441553,6.550945456708878,3.8848310339880103,-30.602380756764042,22.940208787794134,9.678302278304335
9040.0,1.4695401108791408,17.326262042227484,-1.2817792076627128,36.36437324409652,-20.809920600295843,28.218769665169027
9060.0,-3.158229242353744,4.496645473623859,1.2693897030810217,-34.86292037301397,7.174368764704873,-6.443590470367617
9080.0,4.773166576723266,11.523572572147001,-0.48024297569417684,26.811133672425125,7.1098946474603375,-30.693023515597186
9100.0,-5.008761687571421,6.934325677712733,-3.0290727645300373,-19.908301188825558,-23.74407948166852,-1.210068627941053
9120.0,4.3149287582758715,13.593067530565756,5.604553669101741,8.974914511400463,24.34512521996339,28.950224415086772
9140.0,-1.2821702278623117,10.520270933834848,-2.036292172798741,5.119506904264622,-11.441941134802097,1.3473867114155242
9160.0,-2.4547641939737295,4.870259951649665,-2.531328529061765,-14.535230666681166,-3.658953390600973,-29.479822746816108
9180.0,5.863154418866912,12.745029289828645,2.537238110680183,26.212956420586234,19.93577062264335,-2.451506463664126
9200.0,-7.107967479197309,7.150049566333458,-1.5689492791185882,-34.17140583417282,-23.08818832022592,30.141389413008216
9220.0,6.621812551275668,15.655961247725106,2.6333740525588025,33.15775104218225,17.129502834550415,11.348246423747755
9240.0,-3.662607341722927,3.0495755722114106,-1.3781905315891192,-33.86639396206849,3.3047937542371493,-25.278607344585925
9260.0,0.5486229408655563,11.982959142415035,-3.7243300558799053,26.173461548972828,-16.113745151598774,-16.805593648820093
9280.0,0.9077285673228304,10.05804503001193,5.218698226009243,-11.727609581452754,24.51888487680061,25.96133307402368
9300.0,-1.9953966799520813,11.543422974038958,-1.7593864649269093,4.009614353881389,-18.916176799855098,20.969812817405213
9320.0,1.4071297058549428,9.390884739334982,-1.3535265418172355,10.136899995961144,2.6339129206834806,-24.939304854793043
9340.0,-0.7380136831883506,4.861140366677926,1.0600311152516801,-24.77049894573975,15.80859043255546,-24.438141668175287
9360.0,1.059100783647136,15.703270898863355,-2.049937663758032,33.66438092657165,-26.014648259790928,17.83626935300431
9380.0,-2.2099941118171857,6.526808788935181,4.195392735969452,-29.808320017731027,15.538988619126908,23.20476635922468
9400.0,4.14758026617199,13.605107780699944,-1.1017147048025244,37.01122886213903,-5.77857227677994,-15.897565785101838
9420.0,-5.541773698706579,3.5510526195055134,-4.157003214480348,-28.542381228784294,-16.318131948187414,-24.30804139714762
9440.0,5.581337398666956,13.330906179405423,4.510700410269059,21.002543667605988,26.967362231659607,12.342261683093522
9460.0,-3.1109804758315214,10.645977089984171,-1.1837686756741634,-9.012171920534142,-19.39451573796574,30.698947614220803
9480.0,0.12974968755878696,8.244418510722285,0.5581449854268102,-5.027357830977155,6.561038002165432,-7.9399242991921755
9500.0,4.050863071017518,9.991362668560525,-0.423967367104378,18.981379728998814,12.962766250920986,-28.967964203876104
9520.0,-6.6436666571502805,6.172431546751368,-3.3842615102049622,-24.003338456352612,-23.966832993252247,3.685428272159772
9540.0,7.05054702068429,16.869895909623,5.132510860707448,31.995843725320615,23.56682301375016,30.000863279110302
9560.0,-5.229102177684398,4.9943493486828325,-1.053257341674942,-33.578975845533236,-7.147704385133388,3.825242289219264
9580.0,2.630551567169896,11.997212176032859,-3.861886645410132,32.465720922369194,-11.757975425179366,-31.461239791772993
9600.0,0.022525704743597608,5.7023165628290275,2.9263299805873766,-22.386702555810594,21.439927414714212,-5.483825390259373
9620.0,-0.792414942221622,14.330606706304092,-1.337078762515357,16.623592845186877,-20.806631090579042,28.448643975571745
9640.0,0.864048491902877,10.236842640357875,2.1039581157003284,-1.395424551988142,12.379513765417876,9.48724605283127
9660.0,-0.44262238810401255,6.026426161146397,-0.34490057506353555,-11.667753376550765,7.3261534507843145,-28.690142521828644
9680.0,0.12073229286183079,12.063111969123726,-4.241896187035682,23.015759608838852,-25.692433606997383,-16.32357869606346
9700.0,-1.2469251926737699,7.7135881592926285,5.035418159568064,-31.683551425646062,21.5320236441396,27.21213639732074
9720.0,3.297652486552117,16.25731744981644,-0.4866029478224141,33.29617716456955,-13.56323489916404,19.336788768838066
9740.0,-5.262905317379671,2.882767468168652,-2.4261106491151914,-33.11277020947574,-5.483260629278806,-24.356375145801024
9760.0,6.069927631500621,12.000098573869039,1.6003176141567452,26.81139388272499,20.838906183945365,-23.548984172225637
9780.0,-5.1385897938706835,8.805307471448561,-1.9356786365992735,-19.69881196575525,-26.01365223193646,24.178715615203995
9800.0,2.216615830072264,12.663914041431157,3.511622880141949,7.3292897907367625,15.580390082242882,28.904691828232107
9820.0,0.8605929972334151,9.276427158924374,-0.31078725908865956,4.537313867290991,2.909803861750809,-15.929952540788548
9840.0,-4.612482956712164,4.793645649064783,-4.339172176467856,-16.622903141915863,-20.48525989147114,-27.628572784267057
9860.0,6.4456056330891345,14.899271245857094,4.012700123538491,28.18686457397091,26.24816787684239,8.07091225516332
9880.0,-6.006390935596109,7.169344699763172,-0.01785100432145753,-31.335094588809643,-13.875885518484335,28.401401615031155
9900.0,4.169779812129506,14.11626487230401,-1.265641722039643,37.274093670912414,-5.43800966994321,-5.27717848113681
9920.0,-1.7493888524965602,2.753159998240348,0.587603408050237,-30.890422322266772,18.416548108469428,-31.223518992529062
9940.0,0.17360979330853962,13.58057033078376,-2.8461740647977347,23.735289992168294,-21.376220726558614,8.0333542866985
9960.0,0.6527974719521947,10.465993825437966,4.494635548732857,-15.720311775219738,19.259886141189725,33.47356519962541
9980.0,-0.08004858997903483,9.927666890369201,0.4521892495145335,1.1602357403984815,1.6966989357301125,0.7263948077503232
