timestamp,ax,ay,az,gx,gy,gz
0.0,-0.2445358459634641,9.741845254115242,0.12721822146454687,2.907937931228142,-0.4691232890518271,-1.4413543310149595
20.0,-0.40565852834627836,9.335885411767494,-4.454468700043862,17.927463523905004,-18.621208849719086,-30.075308942786553
40.0,0.12779231162916407,6.091721071704956,3.426087154043536,-22.765493218926384,30.420852773329184,-4.128572715343228
60.0,1.89467740781715,16.670702056868027,-0.9726300109659195,29.644063097034273,-20.16069692410848,27.75549270835117
80.0,-4.380148961782408,5.760347585424616,1.105498400858845,-33.89441444237124,-1.0996767753558827,6.996946903963271
100.0,6.111982807561206,12.077219261021321,0.6969494566644293,34.09626663274284,17.528024099549317,-26.68331261839809
120.0,-6.080497739956785,5.201288539088585,-4.326111629503977,-27.171663230431474,-25.518725411971996,-11.400330752219665
140.0,4.781780115701058,14.554684665613115,4.456816579036127,19.28171384616053,15.282325790560467,22.870605503236757
160.0,-1.3676171928230956,10.40636449132686,0.5976565285266952,-6.364387409980139,-5.923705103283566,18.166643621415915
180.0,-2.5644268422158243,6.635743331998057,-3.4532989097078843,-7.603979818347347,-14.198145509223671,-26.018711533342355
200.0,5.2022485447401765,10.894655287568034,1.799866401289861,17.107584807310378,25.742271631857932,-17.04746777833253
220.0,-6.417943228293801,7.414252002158467,-1.8503906961921197,-27.90439807620408,-25.91444884700507,23.815101955920838
240.0,5.13120737300683,16.27350770001859,2.3515506564702773,34.598014308766864,7.060970327471883,21.936120260269895
260.0,-3.2978303337223718,3.032107618533329,0.218732490819546,-31.639129598039766,15.76201001062645,-18.78995694808023
280.0,1.2021023885028297,12.299041577869154,-4.902311278056578,31.78557083100068,-23.40879036947685,-28.160420934002527
300.0,-0.3791133599651111,7.545309913520035,4.320434808943678,-19.993500951853374,24.764521107555204,13.194994771734253
320.0,0.22633504701408869,13.742870733992387,0.7515863006948547,15.364526192360533,-12.77878569092131,27.986320113412226
340.0,-0.8560208550803502,9.688830861205146,-1.7448579518259082,-0.020943182890950984,-7.778563050468708,-12.069341697951359
360.0,0.6816176639006633,5.085450080264602,1.2622861211598684,-13.78397630982672,22.501320379964763,-27.259573144900443
380.0,0.35041728206566136,13.594083609387651,-2.6886007467418587,24.38747534120593,-27.892140506928527,3.5485107217718075
400.0,-2.511035325113258,7.528656236531417,3.7369050344798054,-28.312542814685123,9.638685863431627,27.515663649726307
420.0,5.455567986651156,14.492530772121283,0.607779125025856,35.17274466510618,6.009846321230539,-2.956608320257392
440.0,-6.941034878201874,2.6607887894797884,-4.935220560516011,-34.575138418577545,-22.59581773649801,-28.79051254484976
460.0,6.665840802403618,13.473421505666623,2.7450252990248964,29.035627999337738,21.154808673159444,-4.972718346679208
480.0,-3.5512178188135892,9.902435315071983,0.2654668916761149,-18.477756662175743,-13.889442720371934,29.086120508677297
500.0,-0.20134669021875248,11.086536013251218,-0.6188330204363586,3.5583429504141426,-4.86535091860439,4.074181432647353
520.0,3.7739791978387696,8.54214055721806,1.3512812290163563,8.661899800096142,22.83169529992444,-27.785583443014858
540.0,-5.480764307655324,5.836551379081726,-4.481458352202186,-18.47700628457461,-22.901691728665323,-9.484161131632453
560.0,5.453714849570127,16.041509239345945,4.312599197710291,32.421544604457466,15.195461470633322,26.280016999379345
580.0,-4.101878367239522,6.394242220488075,1.3596252452188824,-34.31556632453002,2.7464727661242603,15.971192750137021
600.0,2.224347217195978,12.578351187159122,-4.567053294809897,32.76028859219924,-16.19821561707527,-24.008532826715147
620.0,-1.3417926008552918,4.010794730794867,2.214710069274387,-31.07458446814521,26.765264510382423,-15.972614649576197
640.0,0.6028471760743953,14.62848525090546,-1.068413514082939,19.950565335373156,-15.25891946159469,20.73275866034062
660.0,-1.4168458908806876,10.309908666863766,1.238077172288027,-8.863890995555035,-0.4078131246957839,21.28040438978114
680.0,1.6738940718990813,8.38504311827186,1.2158357352478135,-1.9600076605437027,14.013796008754404,-17.8019824911848
700.0,-0.9976507974241593,9.894927339389097,-5.23781118275356,13.205915609598948,-27.359661901316542,-26.10322679477888
720.0,-1.5812620390338452,7.762611951648955,3.1435949373697363,-26.72265419636462,17.6063058499787,18.604233960848294
740.0,3.5824420872530713,16.478880823584177,1.2303622041672886,32.82218421113433,-1.8725678780824067,28.73593737162018
760.0,-6.163161099980966,3.6752870318994133,-2.987943810078695,-39.30097781801639,-15.114441867097884,-14.065470385658866
780.0,7.3628081429055285,11.977770059722243,1.5178853040144051,30.374295482696812,23.4227477150122,-27.361191779794375
800.0,-6.097778644962074,6.691113685052157,-2.212317932826971,-26.53160074661663,-18.7744168542471,5.214722281461434
820.0,2.3882817192667063,14.734516650027176,2.3861047243172293,13.564747913881314,4.199453438495072,29.379775508323792
840.0,1.6071780790309536,9.148150487943807,1.7235194394077338,-2.641837380635981,16.053916899583854,-6.422103806702682
860.0,-3.607429857200576,6.244987258389204,-5.51122035976381,-7.5724643618910115,-25.74040203955819,-28.925996398537407
880.0,5.451255312360841,12.506011383971044,2.7026493957024638,18.993972619263502,18.183495257959233,-2.4434057090407126
900.0,-4.702120007888353,8.014184339995934,1.1507045397687978,-32.04351966256197,-9.597214816871404,28.46497413785148
920.0,3.1845617058234135,15.011481255321975,-1.3475637379108336,38.837506347940106,-12.147737207836139,6.204595618220537
940.0,-1.6390953308433356,2.413726221537676,1.315304374192605,-35.350557118783215,26.544843031897624,-28.56879394309032
960.0,1.0657817045927933,13.242959827373062,-4.013063565211394,30.274258729630446,-25.36570052331989,-9.872080853142437
980.0,-1.7754431605354146,9.266062415676007,3.2343077775842315,-20.903261944770094,9.784023179914458,30.60544826223228
1000.0,2.238256182364763,12.430470201573558,2.4628682601223537,9.369389433748525,10.341307614637065,15.14350480961924
1020.0,-2.329320698063736,7.897718172690445,-4.724057981105525,2.4151833564965024,-21.250435736374705,-26.326359438970954
1040.0,0.7476121067781665,6.178557434270045,2.495985442402759,-16.839053411048713,25.231364720696195,-16.636434576275242
1060.0,2.122609990753703,15.122970312375319,0.0039675814138273036,26.76393908125107,-11.846779834068407,26.239773728354972
1080.0,-5.11889149010154,6.849565484133023,0.5978845365816411,-36.05674192779668,-7.39083420062555,21.82604740329335
1100.0,7.555663015936333,13.449529205579568,1.9491053596771004,35.75374009565562,24.126908178166364,-20.35459837677793
1120.0,-6.908432165092371,3.355409909834274,-4.61460274875591,-31.510652194812344,-24.07202792299734,-24.629885300655676
1140.0,4.471193661028516,15.069540931338741,2.7815509219729844,26.74984680751367,13.493263455939733,14.769632449347727
1160.0,-1.218432639613273,9.817215324363188,2.4046056977404584,-14.835095617335064,4.752711333485216,26.45900569080111
1180.0,-2.032673793474668,9.332524967895607,-3.7261507077949996,-0.4393775935391484,-20.6426054838633,-13.603697226022506
1200.0,4.1545795835882116,8.927449522916003,1.3074497619877559,11.28266959417261,24.95475213945876,-25.51419551784306
1220.0,-4.838898329692153,7.145624651292898,-1.5131732798787627,-23.826915923772084,-12.925006202237226,10.026632926693852
1240.0,3.53525852093591,16.588668600398847,1.6291000562742943,32.53543524787499,-7.985666932976826,30.931833712382765
1260.0,-1.9286303497750146,4.627019883834561,2.5254191247894657,-33.96373823302799,21.52577933205583,-2.5105856505094644
1280.0,1.4174194621165137,12.520428754762607,-5.630979879879855,36.05271535609058,-22.678170275959452,-29.947846850904533
1300.0,-1.501382503721537,5.46928941344562,2.155206456668009,-30.018224854395164,20.037519536081202,-0.7692462758634286
1320.0,2.599108790334595,14.91051894380312,2.1462548609645866,21.37844083616081,1.4458841411445276,31.650005310413942
1340.0,-3.488767077733125,8.889660593659364,-1.9933809435274819,-6.5703307441737335,-18.25999593751923,7.593711625666784
1360.0,2.5741045751749967,6.62825787407377,1.5424713826349186,-5.385709867958013,23.481062265335858,-29.81473782862261
1380.0,0.07275658975284052,11.35819519222575,-3.100114720252859,18.679400816223918,-19.297044769477495,-7.029458711656185
1400.0,-2.987912241227845,8.261502822193679,2.4920167852874986,-29.042014510659325,2.545212712111953,29.015577015452042
1420.0,5.951654253982728,15.376006786968292,2.9963605577850436,32.77475143230183,16.501049952028737,14.00800679473522
1440.0,-7.3567890584423505,2.441804192282168,-5.222853814414876,-34.13011183696683,-21.563312546085516,-24.958128406139625
1460.0,6.605629870279492,13.288890914326123,1.5896076896141431,32.411340234407625,20.576781501482408,-17.23333862050721
1480.0,-3.745136982003085,8.006150890316738,0.9030568727982533,-23.525551952110852,-4.015784547034315,21.505409002163045
1500.0,0.51899081126938,13.168284169846643,-0.6338988702836089,12.03913183996179,-13.652823967590079,20.807301561056544
1520.0,3.0516442608192125,8.166821153470801,1.6591023069285988,-1.994348579064464,25.87259927827911,-19.990411106602302
1540.0,-4.211415702362058,6.542264575025762,-4.497457615674535,-12.151952733123519,-20.821136726527893,-25.193509946734224
1560.0,3.5575318308659205,14.370691697724878,2.2268568872434846,22.023767955643557,6.824227243445125,16.23221681330042
1580.0,-2.4886579588313773,7.385115190933596,3.4167004292521392,-31.18301195084212,12.274544599479194,23.8970861467218
1600.0,1.519530925080095,13.708533365951084,-4.302924048537935,37.35815597699706,-23.84416965778808,-14.988664018086022
1620.0,-1.6917070951961597,2.7790451978610267,1.688757472647775,-33.706143519450855,21.549578974233622,-25.862939987111048
1640.0,2.496495024330438,14.77700906444013,-0.6407572607435874,32.03058963160956,-5.107285538803032,10.5423082356403
1660.0,-3.4599298449675473,9.453937543678975,0.7972935596406535,-17.5508169864553,-8.856315744294442,29.73259842070435
1680.0,3.3812754027521668,10.230276877372175,2.7184110120812237,8.46552392845098,24.288347037676086,-10.617236324014184
1700.0,-2.1886656437170524,7.629727704220601,-5.533263330870416,3.1492973333541086,-23.673714376246174,-27.713557770086886
1720.0,-0.9336899848054668,7.619350611920176,1.5918300442975697,-17.82857105201937,13.034864577557224,3.544617922079607
1740.0,4.305353452250345,16.13532875261323,3.1035818600480254,25.595209021191334,8.419411933312356,30.038144429152613
1760.0,-6.8407512071586005,5.439834519229214,-2.87444628357411,-38.067012692838254,-20.07674645775424,-0.2565639202336336
1780.0,7.277725695027867,12.418678418250055,1.4701554735799298,32.75252791266513,25.647179274995924,-25.962168759031297
1800.0,-5.489127321014499,4.494416380808833,-2.135487186641318,-30.592008095142084,-14.75293445396813,-6.129763505166142
1820.0,2.8280815632685434,15.511039499696533,1.0820811558695989,22.991024172206945,-6.775427465621551,31.453321857879903
1840.0,0.5739151287759443,9.129209930205207,3.3515994217293867,-13.68247990555484,20.493425757386007,12.425264461398466
1860.0,-3.250142794486758,7.384298185789351,-5.103876741848264,-0.33460590884411395,-25.881356520762402,-26.914215142526448
1880.0,2.952013214391995,10.351693530850968,1.202519690707516,13.758116641184387,15.092018762891854,-13.01901342215471
1900.0,-2.7827867306843785,8.546442226963231,2.3006490477282684,-21.207421303307576,2.3464174705837806,25.22132393048391
1920.0,2.0430395666640018,16.097341582808177,-1.5292366367562111,29.551512840382895,-17.488832445498776,16.96321036074165
1940.0,-1.0648132415689178,3.1779409116181854,1.6726086678538956,-37.02147115755804,25.762729258244118,-23.106210057769275
1960.0,2.2920172627371644,12.756645275025384,-3.6487876795210594,33.35868842838312,-21.363628763290492,-20.686748099393057
1980.0,-3.958997396220731,7.414753043895123,1.145267490331311,-27.36950377631236,-1.2340049917442883,18.846518408512797
2000.0,4.555081369001042,14.768403233389316,3.94947603882465,17.53250386107478,19.67877044103544,23.556572692861266
2020.0,-4.014039607464065,7.478778756384075,-4.4979051527981095,-9.13321871869613,-27.764448761924093,-16.209279276745754
2040.0,1.6460780278020484,6.25768212910771,0.8946145589520086,-5.558387695942127,17.44123089908332,-27.070326318262104
2060.0,1.9098215572034052,13.337552758767274,0.7243992368942276,17.72868260851139,-4.202284917399005,14.170038544898441
2080.0,-5.570839809781653,7.812211154725911,-0.6541009457827986,-29.819365550650968,-15.336779158193401,26.683480092004636
2100.0,7.487525621052887,13.965748447610146,3.0447102142130045,35.47437084507243,24.860583019818876,-8.314023310913182
2120.0,-6.797036932534613,2.3252255106841626,-4.863695748894921,-35.895182392604916,-18.429142629067606,-33.27001946068737
2140.0,4.473638097678385,14.492557255602058,0.5644007043695572,32.44208256485851,2.629755757021554,5.083205120278709
2160.0,-1.2577305027643195,9.437924716924787,4.188788111937915,-22.000465911407268,14.6670097811052,30.493726947710552
2180.0,-1.2380061476557271,11.43860165061627,-3.2978975191554065,10.358093251911798,-26.1380487456509,4.747840711382483
2200.0,2.6804295378617904,7.243798803376869,1.3061048915384736,-4.1831074538480815,21.631350855105524,-32.800959443224464
2220.0,-2.3274276842542125,7.724800827911969,-1.4292527451491113,-10.733540398949081,-3.2205866988746563,-2.6172488391816047
2240.0,1.595384072743624,15.811888128085029,0.13374668296979245,19.962304924587546,-9.156355500922796,28.640277964367172
2260.0,-0.9878396864760625,5.907438736952479,4.333748136497105,-30.879068221134197,24.742535249824716,11.920294817023235
2280.0,1.846507780378795,12.503380778468767,-4.837345756709154,33.35098794264048,-22.824558757668555,-27.325679727934187
2300.0,-3.340916394793964,3.995092399423734,0.6335532901766401,-31.339551595022332,7.995582318114323,-14.94667819640358
2320.0,5.148634449360804,15.735861129649617,3.4179555684405925,28.29737006610918,10.188089068469786,28.959674313812254
2340.0,-4.849529185181989,8.97795565123158,-1.8290922894226749,-17.867688183567918,-22.914135040734326,17.097329294560335
2360.0,3.4885361242109703,8.220933261867131,2.002590169560428,4.540109371313968,24.974205951817055,-25.294513382024217
2380.0,-0.390566988092508,9.445773664639017,-2.6223088521525346,7.605325305241955,-11.797045393584327,-23.12495790327006
2400.0,-3.533239884425592,8.649826851824464,-0.14251457550220614,-17.218190020356232,-6.791341084805257,16.190440527973795
2420.0,6.237140265323078,16.100145624124256,4.48835633868493,27.2134303922179,19.505221779477267,24.343694979735428
2440.0,-7.14487073401562,3.508133754715236,-4.683173443741879,-32.86458359211378,-21.783497785546366,-16.072078932637737
2460.0,5.670068375022073,12.294161375550884,0.031585156105652976,35.61149557494671,14.71571230221742,-28.557191905123705
2480.0,-3.269764350493411,6.526930369920331,1.2197792606806754,-32.36396919088332,6.4753119725142145,6.9156991782844885
2500.0,0.10962488295197687,15.437317065541151,-0.81641335146088,23.783988576753554,-22.733887194791535,27.22134303103678
2520.0,1.5522801190854547,7.635747831275134,2.754119176104006,-14.033711261576444,26.888696996148393,-8.290992590738824
2540.0,-2.250700582628518,7.228292988591657,-3.966073665026556,-1.0730307592084036,-12.521451612596007,-30.196290992425137
2560.0,1.3464275477340113,12.304523594084074,-0.49465822795365116,10.101547241502333,-4.4308911817234,8.747382293715209
2580.0,-1.0466426493374186,8.727024618702771,4.738148799119339,-21.55686769419732,21.090167557241962,29.718362938666978
2600.0,1.1230245505492806,14.625869880224657,-3.4602796573447496,32.17222929817249,-21.645704702456346,-0.17623208695708031
2620.0,-2.5118131322032844,2.128271394944087,0.6949375813278871,-31.40441340244817,17.100719469653168,-29.70155546772434
2640.0,4.254892174467963,14.137981401894228,-0.3730899193694891,35.94266193728849,-0.7960231005044434,-1.5563587964955903
2660.0,-5.391171557660045,8.473149862952662,-0.5686664764068475,-23.763268907469442,-18.500776748512006,28.958089388949222
2680.0,5.342922495037094,12.752464220846312,3.7320395082348017,16.02511245741801,28.05334499719322,5.385704484361636
2700.0,-2.8926995636414228,6.929818202072067,-4.721444536176113,-3.677602305518101,-18.487366931426056,-29.18119798579276
2720.0,-1.3550188829489862,7.29217035583729,-0.599937184021876,-10.117988337812262,4.760311051913468,-13.226224495090852
2740.0,4.567902712644158,14.999622244177298,4.229199143632722,20.061973228223717,19.378488756568228,26.170407335819437
2760.0,-6.692477400304456,6.969118973681916,-2.4324877265948115,-26.541513957463305,-24.648526533300927,19.989682218950705
2780.0,6.938878252403999,12.721543496935212,1.1591490659317394,33.46492295442119,19.200666298156,-22.050135868481654
2800.0,-4.981730185864932,3.4870236331482136,-1.6477618880647604,-32.950379147905835,0.22200166100808882,-16.933978621268317
2820.0,2.155254053130467,15.804186309235623,-0.4141023178664567,30.283246414071126,-10.608834628007678,21.234593412753924
2840.0,-0.12329101487851662,8.181909644053716,4.9692122748835885,-22.021877007263317,21.512229671483887,22.964440281206148
2860.0,-1.280551809814735,10.131191569843828,-4.209540108373679,10.942225233730664,-25.73066371667454,-19.56343532922748
2880.0,1.480414175380682,8.032564222975616,-0.731066221089924,1.7174983267789141,7.1789050731018715,-28.093923721330256
2900.0,-0.7648785033190948,8.574723463674617,2.8083851770347277,-18.749118039180438,11.269974878142115,13.34970084278048
2920.0,0.43077605034337707,15.570884252611227,-1.3510875574955976,26.417531426386827,-24.723098532781265,24.694193721447917
2940.0,-1.6875442344987162,4.2447050396231045,2.3893603560690346,-31.407732043644035,23.67754268168519,-11.816788978799691
2960.0,3.4334962389707218,12.412480870470446,-2.957574357048196,34.740883902685496,-8.320922307608416,-26.33037033940992
2980.0,-5.332607975695712,5.751504361605977,-1.5125373941676399,-31.588399805386455,-6.344208020704594,7.656592818136869
3000.0,5.595729625512595,16.354560322333246,5.276897034082718,24.45701312332107,21.606261890696604,28.644437538693452
3020.0,-5.127370273570479,7.418465735457845,-3.0040365486105975,-14.015740102938008,-26.622514806810372,-3.699797335869074
3040.0,1.5706122678897874,8.193541611146731,-0.27358071814796303,1.7152715925922257,11.113519687058922,-31.600270466597692
3060.0,2.105437420090283,10.572579934782267,1.3263380026415836,10.469514126812083,9.473480194726806,-3.0786038416511854
3080.0,-5.294513623459513,9.302111365768466,-0.7533516707150205,-19.79924109042311,-24.57083722594856,33.6107586882954
3100.0,6.883701386737081,14.923445782023187,3.527954324924312,31.22947744655648,26.995663772534535,8.078603405491476
3120.0,-6.016759685011539,2.6655076313654686,-3.65757051938833,-35.26931023337832,-16.113221056916455,-28.3809103199548
3140.0,3.8362607097067603,13.995845930224577,-1.1742435402912645,32.82620004256611,-5.111727686232277,-9.109755961103591
3160.0,-1.2531336553494852,8.020806654287375,4.673556752236186,-29.357364882039143,22.001359668845417,31.55228836432167
3180.0,0.02442202110813063,14.220042476053637,-2.4617280968308117,19.29316711546133,-24.636395984277293,13.334460814808324
3200.0,1.1643365333811415,6.319392480344402,0.26005264764645947,-11.16669633785931,15.435266216466806,-22.680667512342897
3220.0,-0.04332199768468631,7.8668573619710465,-1.170511807419928,-3.5294253943468843,0.7603945156812344,-21.295503121300587
3240.0,-0.2857391566831885,13.777398308865857,-1.3850574175705972,19.979722150165856,-20.84727414984225,22.468219852488083
3260.0,-0.10192331012072275,7.980410015475595,4.707116881816559,-28.46320751836096,22.93206694072198,20.868308122908317
3280.0,2.2596659470007916,12.725472476534142,-3.3431435569924584,30.316018461749614,-17.305031862498204,-22.56023373145993
3300.0,-4.648969660756227,2.793965818702689,-2.4123401077330757,-33.04841828435419,0.4444839013351325,-27.228672861563282
3320.0,6.23986890027186,15.47995315216815,3.4630618529584645,34.811892610169124,20.437642821870107,14.220652227659226
3340.0,-6.187358376570106,8.319451604975304,-1.6002348691198343,-24.884982499544808,-26.61574108508156,25.790375758509015
3360.0,4.1051668491670155,11.273831038998823,1.848537455432748,13.964503136440337,20.505399635663075,-11.515009469920946
3380.0,-0.4753967795573704,7.089846836036667,-1.9856288156170347,-5.8059504201465515,-1.336795624394679,-25.63547232247834
3400.0,-2.9118341987069027,8.779859801935729,-1.6666309258764729,-13.162654412668472,-17.224673162563207,9.251343782308622
3420.0,6.22468495766051,15.7733804063952,5.420014714107919,21.001406914858304,25.88558107190644,30.6938737354119
3440.0,-6.48753337220169,5.258154531516871,-3.302431147147698,-31.413890914700247,-19.47756144593042,-5.454501347205691
3460.0,4.821942203913511,12.311418273428343,-1.6110084181603472,32.43425937139541,1.6303553309515162,-25.699567741208863
3480.0,-3.009891593184344,4.4277288798171535,2.0256435205091856,-35.47922020291574,13.715123224505342,-1.5557764820803426
3500.0,0.8765130998932474,16.43037712784098,-1.5575433057862513,28.28559110577637,-28.285837317745663,30.55202090622185
3520.0,0.1963689472905477,7.360182866618366,3.189585136158809,-20.603612987353976,23.615276755887173,6.508760155793201
3540.0,0.4305890906580434,8.52765585267487,-3.282376945307013,7.237556601368291,-3.6842072955454603,-30.276608904818765
3560.0,-0.5545445839293408,9.677525877164134,-1.9865921072558381,8.630957361031337,-13.673545494942436,-7.4356089282660855
3580.0,0.556624881008787,9.846906061480869,5.325157722808346,-18.164779814394937,21.590087267167814,25.996560333485395
3600.0,0.9694302292494363,14.979111876980118,-2.0628525324368843,28.424706896937337,-21.078049355710167,14.92986487605501
3620.0,-3.5514358424486776,3.158187947410215,-0.7025395090674139,-35.63797678351638,8.198854199304792,-27.717337305652133
3640.0,5.853641955427333,13.100793399678729,0.22231410529748308,34.99731904719162,11.260245766105927,-15.012523374264429
3660.0,-7.007138949096912,7.035871239332634,-1.7984166675610833,-26.925613839471993,-21.798414930745473,23.0071986325698
3680.0,6.100838407692382,14.8708952311028,4.552211277025148,29.441990988051103,26.604887284863345,23.00852332223582
3700.0,-2.999230421254661,6.168698570961127,-3.0624433506401267,-13.060306670081435,-12.153146861031455,-18.802959729128855
3720.0,-0.9134825381133272,8.196625530092863,-2.7280342889390528,0.15416513165996149,-10.870389026402382,-25.079666374123764
3740.0,4.2882998277408655,12.998390261614547,4.204258783793642,8.047756000003268,17.93397156302604,18.196960274715433
3760.0,-5.997282700868125,8.66846131352148,-1.7703177032509247,-20.38765888269346,-22.918346999732886,27.844981208649557
3780.0,5.3721505232446765,13.13822627535041,0.9444963279500774,30.592964740747558,12.427854660503897,-14.726647964525558
3800.0,-3.760514742696957,2.401368087319102,-1.1420930007954253,-36.531222167595956,6.093074382020221,-28.18821366161175
3820.0,1.8024550823538084,15.323937213731176,-1.959700120996433,32.90337581113263,-23.304999812134373,8.350199453761284
3840.0,-0.7517747935214377,8.44800674818575,5.176585999421735,-26.337055258065362,22.239590023289026,32.417092075027504
3860.0,0.41222497647818057,12.094991859881564,-2.530291603885918,18.003183135631737,-14.268990223983735,-3.0036162675948166
3880.0,-1.4496054793332658,6.275735839705011,-2.168496761562912,-10.211975765941508,-4.536254634436491,-27.950675847386552
3900.0,1.7030889839614756,9.212670693210478,2.6990898527512734,-7.148624901631205,19.312264194229332,0.5165633420079772
3920.0,-0.8474166202020789,14.783718484529878,-1.399557868936455,18.557490931040327,-25.237464571027402,28.860848827659613
3940.0,-1.375617736075687,5.651092822525248,2.69415640832711,-30.495227384397815,15.84190018992748,2.46061577380552
3960.0,4.557806793269322,12.090548534250795,-1.760173679430566,30.899622773714068,2.1220561514598644,-27.323792034690122
3980.0,-6.745600866802614,4.286840843656522,-3.1217353536730785,-27.780128664445627,-19.95304209331523,-5.022506637827029
4000.0,6.945815627670509,16.80617278161439,5.464733856114646,32.42056467383607,23.608929250050632,28.27176837857589
4020.0,-5.079424239926574,7.660886344213397,-1.7617060226088042,-19.61675801339934,-18.91176812602143,13.556240241895155
4040.0,1.5860509302196555,8.922009601022532,-1.805019611201528,10.601853289841568,2.0926542485859896,-25.16138600211547
4060.0,2.0602965116400935,9.007557213573277,1.6787115017892935,-2.323664367105329,14.736404771873266,-15.844824325029174
4080.0,-4.539901713450801,9.998181764557188,-2.406913081449515,-13.073950224170325,-21.989807339139286,24.464122739629968
4100.0,5.186072819450288,14.87299425425799,3.947992084176401,23.476455533342577,23.615296234872094,18.584871824280743
4120.0,-4.414518277270326,3.4292597271057392,-2.2594935989822433,-28.69529166957989,-5.703227389251107,-22.084291518084136
4140.0,2.8389300894463076,13.056363354107786,-3.217252293042119,37.61241540857404,-16.228260648086337,-20.52062255822226
4160.0,-1.1189697936039869,6.211918153194241,4.577525804093983,-34.8481426086134,21.278477686525015,15.61954714160631
4180.0,0.594472316882189,15.835317868248488,-1.2956519341611428,24.922899455298065,-20.35699385747873,24.315502367552867
4200.0,-1.689442332346689,5.815396448211384,-0.4669847816274143,-19.170449715514007,7.238076817523191,-15.291990074892388
4220.0,2.350905727415407,8.492536350901746,-0.22915179993492513,4.154808098427567,12.453532541461927,-25.193083149375443
4240.0,-2.283718955657249,11.770924545275522,-2.680446543059759,7.159870895121707,-25.798977970837665,9.510382113617622
4260.0,0.2370136872177795,9.79350392596847,5.040157117135352,-21.056845587209718,22.671304076496927,29.475300658984498
4280.0,2.707981673934774,13.317369459276785,-1.7370252416263299,28.407527942693473,-8.06787094738551,-6.40636646086801
4300.0,-5.541112947436869,2.6777452418106558,-3.539708392488586,-36.33732709578205,-11.09501043346907,-27.513489543089182
4320.0,7.481890035194842,14.753131932104619,3.1543715465136435,32.52091180439212,24.37591803429408,2.1563170705274897
4340.0,-6.6138025352756955,8.00381347725579,-1.1360558786604247,-30.10308991562018,-18.524287326298584,31.920432391835533
4360.0,4.260545999639243,13.30909441540437,1.248349396811122,22.67314670676232,12.236943215238579,0.4167519256673704
4380.0,-0.6139299792265345,5.54758493776209,-0.9485480471476722,-10.803689954046414,5.80099244747168,-31.68050496331783
4400.0,-2.831008097914895,9.04986354362278,-3.527529480010279,0.7038876193314092,-23.816925621618328,-3.7060461604970407
4420.0,4.594089711668857,14.124673783558208,5.012711517918917,16.937345176849206,23.799966998709127,26.578866664751523
4440.0,-4.831092319434222,7.265169779845828,-0.9269767692212736,-22.69282904746322,-15.22227283248755,11.076548157620017
4460.0,3.536178257076202,12.041206842677195,-2.798651346076791,33.02886612484878,-3.8238380390319113,-26.561591734129333
4480.0,-1.884038463038467,3.5906192192016504,1.6546736428967008,-32.15394547160882,21.446441699143183,-13.959232295834921
4500.0,1.4703441074665498,16.612678417744974,-1.8072336068244421,33.138682770909874,-25.817948251796942,23.83742489214663
4520.0,-1.9806405022201434,7.6364193418804405,3.493088422078589,-28.82273948785259,15.053637636219758,17.94695526258792
4540.0,2.7374734358914696,10.410275958025862,-1.0193480740546508,14.793298309868232,4.181671772612017,-21.933639407703673
4560.0,-2.682093147225146,7.4799332539414936,-4.559331605719644,-6.213971727139179,-19.146624156286947,-20.9864831671687
4580.0,1.950726843532095,9.963321274014318,4.80506181389306,-8.55726774525703,25.680333076524985,18.223409673934395
4600.0,0.7919678799383563,14.573660038563993,-0.8902081801927257,20.522085505382833,-16.72315447276499,28.752218388756695
4620.0,-4.015889580235577,4.166499780674714,-1.4101789260881845,-27.63013543846107,-3.8162848942962535,-18.921277163438155
4640.0,6.563584828110907,12.472084812215932,0.967691127813525,34.24577246329401,21.115656566351085,-25.5078811067476
4660.0,-7.442119241850995,6.00492164402653,-2.4815753946646377,-35.7389352171265,-26.519448499347813,11.422628896680186
4680.0,5.781087509609462,16.510277311026286,4.286902499097041,27.082021597358974,13.908530563302389,27.13595919539781
4700.0,-3.1076856150825423,6.29035998705952,-0.6105785444900104,-21.7928403633196,1.3702336075748291,-7.51419338167335
4720.0,-0.6730855795982283,8.45645575809075,-4.708424927494317,10.904339305116505,-10.993618373310536,-30.249423148897854
4740.0,3.6538024814941394,10.372793420246524,3.676228708986423,2.7050659788217364,28.819994950089395,6.159747247221887
4760.0,-4.122418198003107,10.194903337127691,-0.613715362953875,-13.06418233612019,-19.68684389227053,27.058238177933056
4780.0,3.9877235579255363,13.752180601732542,0.6456188183579993,24.328487093908155,1.9597203836606507,-0.12956997614990906
4800.0,-2.0661360727160565,2.7632971096587866,0.16548491045289387,-31.677613198591256,17.587660616973846,-30.37277595990767
4820.0,1.4499349140731457,14.210789984495195,-3.589412986174188,37.151442474417614,-26.234054155520035,-1.4276385096724082
4840.0,-1.7195577896687184,7.543755023092939,5.069038212327859,-33.223311625928694,21.43626225291195,28.374664821361144
4860.0,2.730930854639346,14.69060483311655,-0.20686041149952647,27.72744610885904,-8.308545756794302,8.593529712323454
4880.0,-3.53445058127563,5.438900173524223,-3.6692379667884487,-15.719239693931984,-10.90854272352828,-25.641636393657283
4900.0,3.637634981985756,9.080519084051506,2.423921556580136,4.216812531402075,22.828216401366273,-12.231732215869883
4920.0,-1.835213336360239,13.39025771290414,-1.3263020329001993,5.492936580335632,-18.394286444772458,27.358579080016167
4940.0,-1.7040833016906498,8.19073192386875,2.3043835460486815,-21.38833664978483,7.229642393428599,17.131581008796704
4960.0,4.907341200658702,12.088949424772236,-0.5448300024103339,31.448191711203812,9.927743270676084,-26.519637214404185
4980.0,-7.1244938736194765,2.898612643031436,-4.441290772386994,-33.156600324268865,-20.58722043460704,-23.063421478914854
5000.0,7.105730662864726,16.39303711801945,4.353818161591654,33.06578827054383,23.170579393165504,24.11202312035288
5020.0,-5.397001556706982,7.530764130685315,-0.048304854424406574,-30.852356553467903,-11.619997713071532,22.705426220655777
5040.0,1.7014130602893551,11.449744893136984,-2.217207281618025,20.664826057691062,-7.917359298389538,-16.82219427877523
5060.0,1.5949511169420116,6.343033358487027,1.1762177407553105,-7.06412343213942,21.175518427377604,-26.082227591567797
5080.0,-3.2927557042423135,10.436786669509074,-2.311586803121977,-2.888258814511989,-27.975430050780247,12.093430776190532
5100.0,3.159747651930746,14.676626096780202,3.7483209855681774,14.778006355009735,12.540124341203661,28.796691055431666
5120.0,-2.772586132806444,5.175245527835639,-0.029934338807831334,-24.815491301396932,6.015702741715525,-9.368737005809686
5140.0,1.6844447318009732,11.854806021492225,-4.9073115289526195,29.177828732049793,-20.069725991998673,-27.177618635242336
5160.0,-1.7095309716341316,5.263177705860501,3.7911180146552765,-34.48458664010615,23.663626113355573,9.678425975086236
5180.0,2.6919678556036812,16.999184818241353,0.05354823804481175,34.85287868631093,-15.794463062834367,29.787907623823507
5200.0,-3.7534758801312815,6.1861563775043,-0.9721545623403534,-23.77464751998464,-3.8841646318786696,-2.6226736422075945
5220.0,4.1462739605582035,9.54554375167293,1.0347640971774594,15.795452307884075,18.156609407579793,-30.84825834697228
5240.0,-3.87695278208244,9.138214078934995,-3.8545902502892972,-3.1284102349236154,-25.420431058074907,1.3037829123118057
5260.0,0.7264829690340214,10.658887070126552,4.2462280492308615,-12.08859172459772,18.873735060606943,31.75420118427442
5280.0,2.8887065011203763,13.942302114618254,1.137329836099085,18.14700034458162,3.723521844147551,7.864481313910382
5300.0,-6.262547727996035,3.295112436863046,-4.295413450350664,-31.77665473906604,-19.3478325218087,-27.6095446758579
5320.0,7.851030560759272,13.722490629361136,2.682784242011985,31.513981793507448,21.740193104251652,-10.66047572685784
5340.0,-6.59734255529636,7.137735528063315,-0.781113554958568,-31.538421516997712,-17.70396525440183,23.478857765030302
5360.0,3.6878175226843335,15.260859887461176,1.0586261671174888,26.776752563640994,-0.8807220625850125,17.351235653154806
5380.0,-0.3105496759297122,5.275338433254158,0.5366544579086652,-20.572872680320145,13.838746573493152,-26.482740084570832
5400.0,-1.4283314902782402,9.439957802515575,-4.490457075402272,3.638459083265948,-25.83993785553323,-17.758440143002645
5420.0,2.610491910127196,12.241537676305867,3.9540451806029413,5.548083553052796,20.618121408087873,23.392555852796026
5440.0,-2.404054315350838,9.451640327361144,1.0144804913514127,-15.64754659330028,-1.340992282081598,21.495776333534568
5460.0,1.4372175368877769,12.138984247471011,-3.0575317998545697,26.100905887669303,-15.753630838418449,-18.85658593897743
5480.0,-0.9894799031823311,3.1369651679664288,1.5364145189041842,-30.652310031482106,24.16540867580302,-23.170163924209355
5500.0,2.0268458327711065,16.07073927490288,-1.818460071995057,33.09140629045773,-18.229664765262385,19.40663338963484
5520.0,-3.518959693965786,7.360778975182188,2.6109077296275736,-33.23958103507654,8.098443513735642,29.264460802021798
5540.0,4.926754878402156,12.686851216840845,0.7763171954076977,22.9742810913459,11.80878434082482,-8.005873616921116
5560.0,-4.638738749994623,5.385566925263063,-5.300384775826556,-12.048349673491254,-24.04319021415634,-26.545931276188774
5580.0,2.912178616780821,10.724682508578503,3.468072859865204,1.1596308189244584,21.902254297898406,6.665124378339433
5600.0,0.5349079887839125,13.876635414015551,0.692042497908774,11.13451587178714,-9.07792285453948,29.156162299561643
5620.0,-4.04219931740209,6.683435310123895,-1.5915918956634572,-18.722343748235815,-11.113845601467995,1.3496069248383384
5640.0,6.945607660331658,11.45051179065069,1.3495745079718278,26.78286108856311,22.397619763834342,-27.766475641374015
5660.0,-7.339950707736547,4.648033081564012,-3.312549413108748,-36.85977397977518,-21.17997489981401,-3.084766370698543
5680.0,5.746064307203134,17.071905695980558,3.662647417005768,34.209315475889284,9.521789506317408,27.669196593568536
5700.0,-2.0349213080056647,6.146474976536461,1.4873376259110296,-25.68771278941948,11.325125051881058,2.4682497841015993
5720.0,-0.3178142924204059,10.377409333581117,-4.8115985765441165,14.836485777546187,-27.249837279724204,-30.292242450236593
5740.0,1.7178998857079433,7.9439622112367685,2.7079831674965553,-8.619879867406976,22.35203591269563,-13.126782123675456
5760.0,-2.216120183269045,11.49246935556406,-0.15008020350597656,-6.5554986330633955,-10.083726452334862,24.024027612321007
5780.0,1.8068845680106196,13.603153628018212,0.08714064973682781,17.728903395341288,-1.9754177806019246,13.706493021202556
5800.0,-0.9121028964442909,3.7272736764241703,1.3752504960959024,-33.150104396783895,22.09276300194773,-25.543223889188447
5820.0,1.585003214775294,12.932123484085801,-4.3998185918398,33.4083307910444,-22.5135076802039,-19.731495138683673
5840.0,-3.0048589342699197,6.6751842739351925,3.504748837468406,-32.95487922025004,15.509858978658388,20.518227906834856
5860.0,4.859341983470083,16.125539055579207,1.9193123441158717,27.69500323976039,3.810915292619854,20.04359659488305
5880.0,-5.355797440931037,4.402166071512036,-4.146674080223187,-25.885161394391176,-21.532460440777076,-19.383254658018966
5900.0,4.641200790446102,9.80354668079461,1.8293621074512811,10.448148841505205,25.592244925479896,-22.964294963996977
5920.0,-2.0285372353347304,10.891214816363847,-1.1871463131613595,-5.024822019994693,-16.986979504489064,15.72540995662883
5940.0,-1.6805062881776038,10.36335716475609,1.5169379719914045,-12.69884971820282,-0.557719747182519,25.433420682890855
5960.0,5.189248810289997,11.996719483506283,1.5155043084169009,20.402326571792678,14.312676951250454,-12.330832517924915
5980.0,-7.295391891470868,3.0304018297476363,-5.895625495218731,-28.937826209203283,-21.936877681040347,-28.724679638234733
6000.0,6.940730053024321,15.585645339855372,2.968265988661578,32.07370867567058,16.782119142674738,10.637547883243899
6020.0,-4.688860905132714,7.559069945418102,2.150877542491215,-33.18044704614408,-0.36618630110881456,27.37039265199617
6040.0,1.558421591244857,13.311139515607502,-2.3062393904854233,27.48267522312753,-17.022591533191143,-0.874650313441578
6060.0,0.39087898890900724,4.801551940554217,1.6305970551156908,-18.124265076386862,23.773365670016144,-29.857655725529437
6080.0,-1.4013483988659874,10.887919891887913,-2.8323979015437106,7.760276476654505,-19.155461842252464,-0.12413749054399542
6100.0,1.388711415817147,12.875252271112837,2.4876113127408965,8.062109137600368,0.12627815054674496,30.92424348937561
6120.0,-0.5389453028970657,7.359554753644486,2.8866888788514364,-15.891224708575319,12.350663208156426,7.130668891492721
6140.0,0.74107559345957,11.564204003258647,-5.678797303514317,27.471824809882644,-23.29997772141144,-26.895446703643543
6160.0,-1.8876060656078073,3.981895393268937,2.363871773535974,-33.85730634290769,18.42186137898029,-7.769433270415061
6180.0,3.865693706903995,17.267776698688365,1.3208855662529622,36.066446920479116,-8.305789773109884,25.37558991582782
6200.0,-5.508058749248904,6.313809483060892,-0.6715768896440582,-32.86457486101943,-12.672529779865686,12.189281046015836
6220.0,5.871140181085065,10.84199836385707,1.6113961406155866,22.992110315319987,24.440206120714883,-27.329448445027694
6240.0,-4.108256106936128,6.629311228634697,-4.2303675355717685,-10.896636053793221,-21.532554043730645,-19.786773962719895
6260.0,1.0124027387381682,11.510947908485742,2.687555824654059,-0.04136417152463079,8.25207226543061,20.56662922403073
6280.0,3.2786527637992178,13.335601385914602,2.7499841847639668,12.31834741730306,12.401616581940868,20.141048016766906
6300.0,-5.8928968280209215,4.560587821264077,-4.199410145769619,-22.24608324913392,-23.01645652748096,-22.949680924677406
6320.0,7.204664251972323,12.515328490978519,1.5868467074622434,28.343455662343594,23.276870017592643,-23.544492237875648
6340.0,-5.835000184289322,6.226258212907139,0.008994617075172073,-32.17425122055442,-9.172643447677038,23.12423807366143
6360.0,3.341311898634857,16.650321117609046,0.6128578478786837,36.541119670808136,-12.664288594761404,22.49578464446105
6380.0,-0.6299159453847852,4.6427294762892295,2.439784110511715,-26.70846017880714,21.15944695483942,-15.007629755267132
6400.0,-0.4475105545444509,9.977748212243256,-5.167557200007501,11.746867076629144,-24.634815752481206,-25.260279147119483
6420.0,0.94773104519237,10.057053615846845,2.5275119279295737,-6.250979268306299,8.889701745482746,10.830617660309422
6440.0,-0.3425220063674241,11.139460532737973,2.7611973606294242,-5.93950704959204,4.556975843311715,29.49126469526046
6460.0,0.17283464095959553,12.244075071377479,-2.88293693298358,19.379193678040828,-19.783752313511034,-5.463597728962895
6480.0,-0.446161375404279,2.661514656579165,1.4275400509068032,-25.12906714071383,26.051186312382928,-28.777407449336877
6500.0,3.0833707147567186,14.418982319762474,-2.021816600270078,30.747120228671427,-16.027066950007708,4.102725684610092
6520.0,-4.835899035333558,7.156978069460151,1.5289609260460066,-34.57914395277812,-6.278034029146599,32.87715786168394
6540.0,6.2894827031090434,14.33665056995393,3.304624766579287,28.83406517285892,19.365210356601697,4.476390326097593
6560.0,-5.9997867342884685,3.9337919816270115,-5.268510395366728,-21.450343713904065,-22.7652911020248,-29.232366972176226
6580.0,3.1944476032937565,10.973659782094217,1.6055108888553251,10.92058198300181,15.07968566426867,-8.045100847555078
6600.0,0.8636673359022577,12.290248624343324,2.071965393242243,0.04390162282136356,1.9780532364039134,26.228239296404624
6620.0,-4.29735669231087,8.530631723382077,-1.8157991478920998,-13.803985735302163,-18.52926619298425,11.558841709889508
6640.0,6.237034843159243,10.988749355024582,1.9325345421149798,22.625749704158036,26.284679221519305,-27.33699006738534
6660.0,-6.5025256551769886,3.678048835103562,-3.5000932330896877,-31.686058306694022,-19.15769188428392,-17.59012707514165
6680.0,4.6122449618824,16.84542503992579,1.337352547741328,35.8104960802725,0.6147722330379543,23.11000301465975
6700.0,-1.930552827893446,6.419011358231943,3.5808251253395174,-31.864927508511666,22.257190396391913,15.751890982197374
6720.0,0.519956045215547,11.821905652162666,-4.804290968417571,28.338271015312895,-24.77498145553048,-21.09884947425458
6740.0,0.13573724166709453,5.734340673849619,1.0149008533122537,-17.432985925544692,20.54675091754842,-24.374986082657188
6760.0,0.18108510522478838,11.896694534085542,0.7921195051755733,1.1112148491494698,-0.9804249107590306,17.692528881216155
6780.0,-0.7588140224661584,13.181449813714883,-0.20572055995728988,7.356062203647677,-19.01303647611546,25.38905389212146
6800.0,-0.0661683781204992,5.51344020825943,2.0758716595528743,-20.000650985067377,22.223039927298725,-14.746318879751541
6820.0,1.4126257707210956,11.625562523438838,-4.883783486736877,30.57990896625858,-22.229402756375578,-28.161881057945408
6840.0,-4.170750841356548,5.72839357548843,1.5249427297590128,-35.69772805963067,6.933475551032059,12.332909245872596
6860.0,5.9705065057208975,17.214467324469233,3.438595417887097,34.63241335601433,12.3876670692038,30.25923180483698
6880.0,-6.964129057399463,5.128442317998723,-4.275935247596136,-28.98466289828291,-25.38156301178766,-6.0794318307411945
6900.0,5.153995284485027,10.875781067460824,0.9225809320426491,17.39328934501966,21.424159969902135,-29.215876172223727
6920.0,-2.167016616458485,8.781275422550598,-0.6569011876463224,-11.461818421468278,-9.816434967833441,2.1919163505630146
6940.0,-1.4045039977846487,11.75352675088833,0.40392513761921156,1.0479780414666777,-8.691724874354044,32.10427841001162
6960.0,5.009915345730761,12.057430435302985,3.433445444521534,13.163214535350665,23.731240506810266,-2.4701164882490714
6980.0,-5.862824554681202,3.3975924583132597,-5.212701506579014,-26.33454670177272,-26.25008905060513,-31.212377012873773
7000.0,5.655949860402523,13.861521940869368,1.1580544659224568,30.819953933607763,8.837735288922163,-5.116388456942857
7020.0,-3.503287604934242,7.297192211044285,2.7730938417163404,-37.92929056069586,7.405786641003103,31.909715714117223
7040.0,1.4884241202871544,15.35254339932835,-2.510654708422455,32.17067177843436,-23.232338987577403,9.812678209859627
7060.0,-0.11843921440309857,3.9480276503886236,1.2228393647156395,-21.947629903242802,22.858255239469393,-28.12850338242937
7080.0,0.7004661990025843,11.027210121601232,-2.247339250277204,16.223420116288416,-14.529636655538742,-13.272879356139702
7100.0,-1.0194014823907833,11.627128559577594,0.8719020790438503,-3.320030670086544,-3.9849534646761406,21.427529392145853
7120.0,1.6671860646445595,9.988035657605415,4.486155026299092,-13.125015786640294,22.295801043220195,19.695493028338806
7140.0,-0.2276759853356552,10.903300091054728,-4.9657183639636155,16.11064788651487,-21.669617771833884,-21.831002871682788
7160.0,-2.3437430531701358,3.89438664910275,0.41016703945473143,-28.77533070754462,14.483781074586654,-21.840847835579858
7180.0,5.104519593488856,16.409792494051086,2.0377661201409194,35.370461595856064,4.018771582338789,18.045749576143393
7200.0,-6.9670655815242135,6.796470115093248,-0.46156175047016235,-32.03782548474077,-18.53804515619483,28.826140213986363
7220.0,7.206366828537461,12.857420931992857,2.5355349127197218,26.75668929536966,22.333716743115296,-13.407231958535423
7240.0,-4.211515106678231,4.500349940174934,-4.0221237453543335,-20.124280721394037,-16.641949813343018,-29.32918543018705
7260.0,0.7929451007993755,11.880006185113459,0.4476261318169583,5.111656293024412,-2.444353155460763,13.654746113023474
7280.0,3.055420813430976,12.823656264601048,4.310521229848768,3.106456074520275,16.92294014113979,26.420780093021854
7300.0,-5.046941556254492,6.7952170369956235,-4.228441898309841,-18.723099126074565,-27.333008202200052,-11.704046479891762
7320.0,5.473910413846192,11.270826960250377,0.6263837489467583,28.896687764956418,22.440158495994513,-32.96542991456518
7340.0,-4.326522654951269,5.384080205260453,0.11873592849188547,-34.06521366944202,0.6581790989933902,5.8005458761335715
7360.0,2.3651917002514065,17.124939025450498,-0.23928365216877967,36.62733605534219,-17.10587397121085,26.308588059133136
7380.0,-0.998324235362325,5.399396330119157,3.276831614939332,-29.86819852039598,27.110024962839244,1.1999189736728821
7400.0,0.745239893698848,10.924894696372474,-4.771917577799813,25.517878752130013,-19.64263194640199,-31.677713489985834
7420.0,-1.691812010175243,7.460685630589835,0.06309511672031334,-14.80441268987569,0.9282896720042006,-7.939513817324181
7440.0,1.773538960407581,12.202861340498087,3.74025064772471,2.9260459545725643,15.333773746687628,29.373614808548744
7460.0,-1.5797938275481291,11.838608580429492,-3.207512322021461,12.534886153578363,-22.629014360253198,10.082512334163896
7480.0,-0.3786691389914393,4.291452582888892,1.0961816335603782,-19.111140167229703,23.04385348418946,-30.844623291220707
7500.0,3.369803122432743,13.094297207828689,-1.0825976730712745,32.038131743654226,-4.894045232792274,-15.180169736785823
7520.0,-5.686350520668611,7.17885172024785,0.006585078976911074,-33.84370902315022,-16.769666431688407,25.992623661725496
7540.0,7.298416510661933,16.22195387976739,4.2242170047853245,36.420025214329414,24.468608072633746,17.904165130424076
7560.0,-6.2462007204279235,3.3061912781860143,-4.5709850244758,-28.428932752671134,-24.221654948337644,-25.187756719526973
7580.0,3.4483027406347926,11.15740723402711,-0.19493397048104344,21.251469258926754,7.406253822380316,-20.964576878599733
7600.0,0.2767524639337565,10.35001958548267,2.9062367566165097,-8.589966868769153,9.253661288109198,20.452919662239857
7620.0,-3.7064141161700355,11.327795907078658,-2.1576282863671494,-3.440766345022032,-22.4623802902743,23.007765145600207
7640.0,5.233485888518694,10.780645214857524,2.0628191496734916,17.915094485068632,19.985995426481022,-18.81989966275989
7660.0,-4.772934004727981,3.4652668132171707,-3.3282181634313943,-27.624875459948928,-5.55853764252023,-24.56645683196045
7680.0,2.91292540291236,15.78622734049149,-0.5355256120079348,34.00700894421698,-8.99662111168444,7.727796072005599
7700.0,-1.3974206668604499,7.246960393215381,5.18354274070063,-37.5473681496989,18.362344074292228,27.397045933452777
7720.0,0.685601915781839,13.32153228570307,-3.633381688446284,28.728834802838293,-23.983687832678914,-10.976304826490724
7740.0,-1.2876591976602354,3.8136873259312805,-0.5188020256735277,-25.173685604042983,11.798392113412733,-25.4732130552449
7760.0,2.3603475549316126,12.316124127635888,1.1468972105577737,11.410020336414005,5.817068993104453,8.691183923044889
7780.0,-2.67895807816407,12.195493486380258,-1.1283480756739408,1.0674945039044208,-17.672035310306434,32.9618725107151
7800.0,1.388192979112508,7.859611845173863,3.4437134120481385,-11.432085174959322,24.4168709899972,-1.0319456247266612
7820.0,1.377587416570751,10.633194283014255,-3.629798674960272,20.659999020484797,-14.67145098938597,-31.98322692142699
7840.0,-4.211323781963039,5.268290371163719,-0.9387334720943374,-29.095027238570257,-3.8031739038767864,-0.3669115480013132
7860.0,6.945204210520306,17.116895997499768,4.898079242606467,33.48517344047966,23.101833892830804,28.42708670787374
7880.0,-6.997496825580355,5.5706457807916605,-2.6957919325790667,-34.95285367382777,-24.314826571078413,7.834001185685271
7900.0,5.690611481610242,11.735530738172482,0.6642592217597934,29.448356915100277,17.734422985676133,-28.686876628814485
7920.0,-2.1101909241393546,6.3215681251484686,-0.7092437715336455,-17.838124915252497,0.013602961092905819,-10.26788988786608
7940.0,-1.4827037110142547,13.007954113169408,-0.6935391110739977,6.594254845082644,-19.230835943605683,30.52459273686157
7960.0,3.666106144281197,12.175579253866177,4.450662500892951,6.160525004408668,26.506095066331447,18.861216292343293
7980.0,-4.374306966529021,4.6248633824809735,-4.063584368286543,-15.867291875582374,-14.646579026423606,-23.672860841316194
8000.0,3.524618298855698,12.060578835759491,-1.2221514857850875,29.447857293579855,-0.8357774872745777,-22.09409273715761
8020.0,-2.7870973371982743,6.904934560089649,3.54039079559666,-32.85691044831101,15.852741113172549,22.33800660650204
8040.0,1.5065802051821011,16.51813356515896,-2.1540678905099604,34.09512456019466,-23.814980709438476,26.18162288031909
8060.0,-1.6344741054724792,3.8696014886291836,1.5249427143515917,-31.184738617461072,19.44833860198753,-20.366711824599847
8080.0,2.55114125036215,11.08229900005798,-1.7601369842916552,26.451681164152923,-4.010198553601583,-23.250043238712315
8100.0,-3.2993164506673986,9.380214445202382,-0.9749261276386947,-15.390996029491095,-12.054384581233608,14.008812880773242
8120.0,2.6825670762232807,12.395987817531097,5.407644694910872,0.345206661222579,27.212512735063804,27.39283216000193
8140.0,-0.8153808003989166,10.85600443732776,-3.622141388278553,12.50231769727315,-20.159048262516436,-11.886367554448753
8160.0,-2.5801284295678975,4.020897838363628,-1.4644545638996418,-25.616174588110034,4.126996869099008,-25.44367599101046
8180.0,5.714388339829278,14.843760936558667,2.470784041877656,29.591961881788073,15.006156784747416,6.4097146145559
8200.0,-7.380523053514264,7.326732266685442,-1.291788464825297,-33.75480251949271,-22.808755981748252,26.9052059595796
8220.0,7.208738230942897,14.591742054405211,3.381329636188258,31.47458323584546,22.3129324816818,1.494093699363804
8240.0,-4.514047327771666,3.467275688414099,-3.116484492847712,-27.555480221356465,-9.326765600267143,-29.56968391395753
8260.0,1.2238477997166664,12.13569433707644,-1.7722495672678795,22.52215218490901,-10.143239949213958,-0.2441524517264253
8280.0,2.2446779982050926,11.64980740884847,5.084900292565163,-4.442295314800946,26.813402099859708,32.45253440470404
8300.0,-3.6396051055075094,9.422820084175582,-2.684998201239598,-8.231460708067283,-18.651967785290513,6.827631364040136
8320.0,3.765162233140818,10.08855911330178,-0.6989296003000516,21.61871356746514,8.15460281696996,-30.18865330339675
8340.0,-2.3670275930984097,4.64517170598126,0.8317071243869723,-28.11745789053471,9.522965027387858,-11.264308569420713
8360.0,1.2987547361988456,16.99256784516609,-1.0729037329949322,36.52691173640704,-19.70297803757041,28.02069986633955
8380.0,-1.4280262743546213,5.738556836099801,4.581223301395011,-33.8595052150074,26.183429196978995,12.039444787878143
8400.0,2.6003464850422713,12.32512154706664,-3.166175360497279,29.763676416762536,-11.453930428096763,-22.34211757603149
8420.0,-3.9786873713474624,5.188147928197852,-2.144464300438408,-23.335299571322626,-7.421734971565813,-18.15096266921609
8440.0,4.138873862530536,13.18481454049247,4.158293975071119,9.906017087322045,19.836243261162927,19.180434489660602
8460.0,-3.0282813189584,11.96046271046706,-2.4581701915117984,2.351410393352169,-19.589412179547878,20.570512553599446
8480.0,-0.2567922462965883,6.137275498823542,0.5275401356461388,-15.260844825408405,12.135742006895867,-22.579410273570886
8500.0,3.7684692594682443,11.276555668940071,-1.1261251444157565,25.345107834131788,6.500931726591324,-27.436303140548322
8520.0,-6.58031254324542,6.516669292742115,-1.7870755345547575,-31.130388182943364,-22.917077599978146,21.759152887454015
8540.0,7.523494168300709,17.08226237011871,5.320988618573164,39.47128227672952,26.572998920025917,28.91458210578468
8560.0,-6.018698808472237,4.080757352480712,-3.5231453920578226,-32.33658139031006,-10.71544473929733,-10.442626701996579
8580.0,2.852469468206259,11.15424077109342,-2.2426125331973377,26.764358222207395,-1.5393372639275236,-26.445211137446048
8600.0,0.3262047316964791,8.05143300007614,3.0851175403140476,-14.84228416083786,19.27334558563372,7.5969648290871445
8620.0,-2.319697459904815,12.722692616915188,-1.1290882883159785,4.07114420540001,-23.43252672621848,23.975306202784086
8640.0,3.1524337876374737,10.927251326477988,2.0653413561034157,8.602386382702356,16.027895399150356,-2.579034479201611
8660.0,-2.5291071324113354,4.44275891483997,-2.0936867774328527,-23.58065531354633,0.18645305179120364,-27.21234149361328
8680.0,1.3032078847148243,14.267160378593964,-2.1369917223223167,26.251483410217215,-18.53645328437117,0.9876444761191031
8700.0,-1.0738616483798689,7.380333784503448,5.280817357000759,-33.68064867000683,24.427940684640582,30.484186118219885
8720.0,1.7107739834820423,15.16053227557742,-2.2879946838394787,34.94728219123313,-20.171101291482067,5.019391748046062
8740.0,-3.6585337331439405,3.3298035180964405,-1.681087795419836,-31.96619194319384,2.9194983322896673,-27.964635155610452
8760.0,4.59507464187933,11.905279706372628,1.8281159973865027,19.16603771334492,18.10492641353273,-7.694787577506759
8780.0,-4.433534529198051,10.680542678631321,-1.3188838427267418,-5.979205179510551,-24.680558822691104,28.100972584483337
8800.0,2.05457624504155,10.839226772554097,3.9690852623836976,1.3695083054982637,22.424512362196744,12.787611642950699
8820.0,1.5399416911785861,10.002613708606711,-2.279321329714497,15.289701156907723,-4.920742456581241,-19.71516227818217
8840.0,-4.757782839414379,4.7941039811446275,-3.090039079455714,-26.403245492621785,-9.596621613864691,-17.18706874934667
8860.0,7.329592481660536,16.109511787143433,5.0376259810209785,29.325133158514888,24.802416297909723,26.01955546311389
8880.0,-7.128089136422963,6.86681331007411,-1.8473330201197653,-37.578289412916796,-19.53005847982483,19.40927728891843
8900.0,4.877773859086053,12.599593414505714,0.048439765859726924,32.019300216101946,5.600779178161693,-15.303308693601622
8920.0,-2.1523847013921604,4.073641457859689,-0.22761146802998056,-21.414344416181045,11.68690385999684,-29.267030651638247
8940.0,-0.8716495496014921,13.277281385937348,-1.9728424285362762,13.546005512003829,-26.38294872996776,16.81574008548459
8960.0,2.6950297139844026,11.578700388440451,5.1184096221844175,-6.499701357826725,21.554098567604072,28.497444371480814
8980.0,-2.363207697568289,7.530881109369641,-2.2671641682709276,-12.193458453560018,-4.882318242093703,-16.620794684415294
9000.0,1.844422358698235,10.34874781425746,-3.1640349780768267,19.537171174166755,-8.474770252200502,-29.746762504627455
9020.0,-1.1915580381635749,6.1818716527822595,4.0454218251280585,-27.854672346780806,21.190315963719385,11.610071748249094
9040.0,1.7300886929757309,16.785693574581718,-1.6715923064323452,35.167236546277394,-24.588377756055923,26.809274518659237
9060.0,-2.8100399938030445,4.15231212211666,1.3547358475049323,-31.97174958066889,10.47824736597724,-2.3959418570458624
9080.0,5.096629625424879,11.57235806671272,-0.8617908602368094,29.448660737128456,6.366183011350662,-28.591371954878777
9100.0,-5.75959961009509,7.294013632203151,-3.0919252348781905,-20.201870610309214,-22.04540564851522,0.53572439860556
9120.0,4.189893841732649,13.97674043811199,5.160461329481427,13.755042398949644,22.35819886981986,30.393612530516176
9140.0,-1.2360121424625308,10.562778570558416,-1.658395121640769,1.201694741726163,-15.422035126910094,2.455803016649556
9160.0,-2.5342537959394154,5.200806531767933,-2.529808106085522,-15.9358251695902,-5.4644271130712925,-29.22141439322885
9180.0,5.7656170430489695,13.050736131116011,2.29355815624789,25.009666723454465,18.741759906440556,-6.876827724756859
9200.0,-7.482316919197945,7.390892963884245,-1.3709283508901242,-34.71016261686268,-23.418386086503045,23.901811077587
9220.0,6.451446752536585,15.600257252416272,3.0839199149035172,36.65009500745376,17.353964262562688,6.927259514854375
9240.0,-3.6169946685911634,3.2473786348932414,-1.47363503961363,-33.503677754113156,1.973825854469663,-29.87292174649137
9260.0,0.9771490254684944,12.025270306809166,-3.479600545392072,27.977376816703618,-22.745501588048388,-13.823263893900549
9280.0,0.8492919910460077,9.738307506401737,5.041133444602459,-14.359871765696564,21.615606766372355,27.674134542783854
9300.0,-1.8702512537208096,11.884632672557425,-1.2074875537947267,2.2102110377137993,-16.66269468190813,18.488262768075167
9320.0,1.2300920469086707,9.769594165483513,-1.6170533539941607,10.040407075030906,-0.9605837245515131,-27.873145429041045
9340.0,-0.9104556747877844,4.723422081786664,0.8606978163896151,-25.24526688694862,16.629371053837254,-23.328929349626833
9360.0,0.6029975051140626,15.55764601877328,-2.0813150281842017,29.435943423671485,-22.057901323757772,19.230055805478585
9380.0,-2.3566871649546823,7.197923945637772,4.509919915436366,-34.70736289342062,18.725312344851066,24.919005150644296
9400.0,3.9444071463621873,13.186558445283705,-1.1101206092588678,32.2916123041654,-2.621134764728974,-14.359240925457698
9420.0,-5.497897093820059,3.1438423654266434,-3.988533770520613,-30.40950887282307,-14.16922379675449,-29.087593948372536
9440.0,5.43044891098887,13.478609786725741,4.289506125190411,18.63233099824145,22.637557254937647,15.740252426342995
9460.0,-3.478174876789651,10.880071558989414,-0.887256533761267,-10.769710930883328,-19.36977493169742,28.018611351299672
9480.0,0.22054830318099378,8.764829065949616,0.04419925109166553,-9.382092944216552,4.853312478800704,-7.670301954482111
9500.0,3.6668059509852107,9.40428761752765,-0.06620748177471805,18.534850551278968,12.2588427478735,-28.803583503300523
9520.0,-6.490842734652557,6.4038288490352295,-3.664130271795759,-27.64760348988569,-24.29873267648639,3.1909465714028538
9540.0,7.018575817762919,16.824758303195615,5.226728768780493,31.90869447896509,20.677793365241936,32.520835588781004
9560.0,-4.996737169152942,4.854004107259829,-0.9728952598556238,-35.562990225275534,-7.216317915786342,5.10935433370184
9580.0,3.0581341796638912,12.043987849635176,-3.429703208242664,33.38276250841153,-14.488309074893575,-29.19879927345136
9600.0,0.02504838190107672,5.854346280771745,2.6208349022663278,-22.628376725848728,20.642026085750423,-3.621014879791776
9620.0,-0.8718154140835421,14.692561271638592,-1.3222625388875595,13.347639690859168,-24.298252010608568,30.24809635145636
9640.0,1.0116318693456021,10.277166368290949,2.075175641024616,-1.4552384256051905,8.804521926590098,9.955844855205667
9660.0,-0.44627550312307485,5.931786878694277,-0.4986932740119836,-7.82624388272004,11.378923820558285,-28.15180874003197
9680.0,-0.11411895473079592,11.995870145479294,-3.7321779065697305,21.107644033246878,-23.517354175198147,-14.987835825996433
9700.0,-1.2944469071166593,7.480383430750429,5.005571274907718,-33.227527048641626,24.988959007594847,26.488755883944762
9720.0,3.1040257380298883,16.426734554442756,-0.48107173370662515,34.24785183475805,-11.102387592265119,14.059098901963555
9740.0,-5.140682109651009,2.7289182387078976,-2.2957819999962554,-38.20932541728326,-5.161148485952074,-23.98989406250052
9760.0,6.103105349901105,12.094984978019818,1.7403542191277048,25.915110621816392,20.503113692398454,-20.477709483479313
9780.0,-5.148347171668759,9.199773078024938,-1.8769971069435893,-18.371919029876295,-24.633277144346902,20.65846536780183
9800.0,2.245871008325541,12.427887631911384,3.3208847121056517,7.77439926675317,12.198249071072134,25.59746535324666
9820.0,1.320928455711087,9.684316992236806,-0.5035900584919595,8.092972527837116,7.271684999911974,-14.859349347512673
9840.0,-4.652648402593204,5.08317105183794,-4.433269783326576,-17.989365875593016,-21.83809067292872,-26.650127336287085
9860.0,6.825999445895253,14.96760194830304,4.317399346251892,25.42640045850571,26.48296313488524,12.049521710044202
9880.0,-6.218781251810196,7.061388164951257,-0.2412763878298036,-28.495924845647444,-17.763090732777307,28.704010139668465
9900.0,4.302401705834361,14.0384829279387,-0.712872959756066,35.10823755016659,-2.3516919918690427,-10.548884789126316
9920.0,-1.6820858125316624,2.8075573542639867,0.46280897864032977,-30.29312328764514,19.66762878879122,-31.986755000829156
9940.0,-0.212523493895732,13.533417789339156,-3.3284866308785857,22.989989991721476,-21.323053022050356,0.9341867120199079
9960.0,0.4723504370426008,10.298519237869888,4.224368327814901,-11.434073292734718,14.69643342655493,31.389642406701725
9980.0,0.279717246721317,9.780725700990647,0.10180446360641275,-1.3927992030915222,0.10328471876082555,-3.0815669870358455
