timestamp,ax,ay,az,gx,gy,gz
0.0,-0.012641562630736078,9.829779766428949,-0.0019537783860716688,1.55770204439407,-1.4509384882032121,-2.7731064963051866
20.0,-0.7674185433011489,9.149512690144684,-4.345954859286647,11.502341922814502,-16.968835653720138,-27.58718175042971
40.0,-0.19514232733049602,6.390337745594005,3.171617532453383,-19.20965113591696,26.605778771386603,-3.997132836994389
60.0,1.613902503455454,16.783140265777945,-0.7553398799054385,32.95010350948301,-21.1096961395499,30.169364703886206
80.0,-4.609146005046465,5.472810379187748,0.8317205870961136,-32.16916028211454,4.117121882194482,6.949732411463354
100.0,6.09362430680994,12.11395910164858,0.3780790355451684,35.03341444471143,15.277933204183675,-29.13506670385899
120.0,-6.741031670014979,4.759717990050145,-4.116429528720109,-28.750621479992255,-26.674080832915887,-12.850103819763824
140.0,4.733129318625648,14.27083974388459,4.479585922751599,15.825190215643396,15.40911709714268,25.505672511694726
160.0,-1.2889121267086976,10.335703334581284,0.2684271081286058,-5.3319364590683955,-3.301780552433133,15.399006240572287
180.0,-2.723485965526575,6.713114170288204,-3.239884266118566,-6.787102290198525,-13.651579371412616,-23.145560804318038
200.0,5.3101472194894646,10.790158040637667,2.413516299560589,16.171746088254647,24.14292603349441,-18.764328597329918
220.0,-6.260480313788472,7.913286843537696,-1.4450408382004216,-30.42147444237395,-19.784683284436063,20.443609468797845
240.0,5.331994289271903,16.1002811953119,2.4233655806316863,32.37432077500163,7.753007549634007,21.609504819834893
260.0,-2.832275778279239,3.4859091521301364,0.21243879672588512,-35.752212630930565,10.073588232825085,-15.341351176831594
280.0,0.7451394450517785,11.827964665691976,-5.023064503215392,29.372208495247826,-19.315945656993463,-27.209955097670502
300.0,-0.15803357782084582,7.551580507080958,4.519964708578819,-23.23376716813492,23.985412362069816,11.785354259246931
320.0,0.14656429084622924,13.500598202049288,0.8135892396621559,10.955175837915615,-7.906670927805971,27.283325997605242
340.0,-0.4503818220496921,8.97743352658783,-1.563607151351273,0.20503239968970588,-9.71622586701889,-6.368880371572246
360.0,0.6112021633463011,5.37618062962986,1.5475418938730916,-13.554244807814003,21.163706486308758,-28.13608438091284
380.0,0.5460125639670397,13.990627034928103,-2.7892026152298315,25.49587333730003,-22.104639361989694,4.719794671311241
400.0,-2.7637739804815733,7.83749896110095,2.967759998025438,-33.101655568999306,15.050717649378823,29.08792827091496
420.0,5.1021992812238235,14.694369259331182,1.1425118593132053,32.896465193029826,4.762265051587299,-1.3599964373376843
440.0,-6.902492923153816,2.8324034222082206,-4.9355676914999504,-33.597590892245755,-22.453869167626365,-31.636853372806815
460.0,6.4713914696772905,13.45754706653085,3.2387596080046275,28.093675797447645,24.46923400562103,-0.5026299976160642
480.0,-3.81503309635767,9.867069916050992,0.12923145231012717,-16.26125305928141,-13.068138000017163,29.573374976171635
500.0,-0.02731259227391543,11.086177608847905,-0.36659043501128197,3.2486552040390935,-4.183094052734323,6.020225897454075
520.0,3.3480629315336996,8.260370669638862,1.0668276361581477,7.238535824640596,22.48004825887093,-26.216987248899756
540.0,-5.44818325693658,6.344986008154265,-4.2933519082165965,-18.697407365978737,-27.554846598103335,-13.66279262123786
560.0,5.432981557660761,16.374327280919392,3.9575500087346844,30.87861999630858,14.603072505600727,27.24209099925568
580.0,-4.258118572742687,6.0949127455047005,1.390813379269905,-36.04799654780331,1.9222238250788273,13.999524973541728
600.0,2.3505284110482534,12.490744738637193,-4.414801540915032,34.78821673444142,-17.552606922805815,-22.728028616947903
620.0,-0.8992510764718845,3.7085762622310705,1.9467211107783247,-34.660131273260774,26.949191584651818,-20.35794613780316
640.0,0.7616892122518393,14.740237359340929,-1.1753495068608435,19.267775459797544,-17.65382854400172,19.505151602949255
660.0,-1.5116655476022884,10.558500829130521,1.4481341268265038,-10.074822377169243,1.2356771593764286,22.701633646735182
680.0,2.153559383119803,8.157524987732403,1.6867013718339368,-3.6636608335039123,15.03111754675025,-20.2995745604031
700.0,-0.752038257260034,9.902793056366006,-5.056345436412213,16.505384784131458,-23.223006377217914,-23.310650719901233
720.0,-1.1240050817298706,7.393470067622071,3.310379741368269,-25.308060214209295,16.903658371582814,18.171732206107716
740.0,4.186900962633214,16.86390679976353,1.6610977942771312,30.825537358409434,-0.9064007104761089,23.084931830891982
760.0,-6.063737338025376,3.4390141000065753,-2.9381927823192133,-33.78115934728378,-19.511205886998845,-10.368329508601477
780.0,7.449879233283234,12.102248676677023,1.3973132336421064,30.4549012931687,27.215602742941098,-31.088026808464118
800.0,-5.764375377841787,6.712245061996935,-2.205182276505685,-24.99137798588944,-17.45928943080248,8.90978740291153
820.0,2.797801947191922,14.399818724664168,2.4915732206628665,14.146521155522766,3.3361897308554544,29.099614604906204
840.0,1.0004008016956918,9.180305186808397,1.423755078616994,-0.8111827495696451,14.299945511593743,-3.9424225411420775
860.0,-4.037986658833986,6.345521118037311,-5.145102721970909,-6.606377710448532,-23.568704609015207,-25.900430940551605
880.0,5.372336462485586,12.907042927740807,3.282414895888132,24.69934928151683,23.270042689662585,0.7795401021271311
900.0,-4.5805890236693765,8.09751104567662,0.9687289211523673,-28.847243892765214,-6.208665095192222,31.355299872589033
920.0,3.003009009739085,15.041067277787032,-1.5950191279560237,32.23116948561864,-12.601889905579409,5.543572435440131
940.0,-1.5793942296308072,2.519175230471646,1.240720925560182,-34.35652220871033,23.18540524895481,-27.92254494710419
960.0,1.286730916799299,13.630404262735887,-4.0983727302848365,32.016156497316544,-26.9619426989484,-11.727721253323152
980.0,-2.0264748238260477,9.271807083636697,3.0249549341705873,-20.15330752329513,9.29506859764198,26.750074068031747
1000.0,2.0045278315319592,12.060263320846614,2.3139438724836365,9.260332142885876,10.627223210631,15.505667043234325
1020.0,-2.5374879199959555,8.01133055635219,-4.775321864637227,4.8067447868929705,-20.48481762067372,-29.942807391306214
1040.0,0.5906870770762518,6.2041506084931575,2.1559164395188573,-14.925218148191599,23.799589189108268,-13.625018194746598
1060.0,2.345891444559495,15.330860420269108,0.3023400652307238,29.439238576448886,-10.69294871322858,25.485860339101887
1080.0,-5.424963266013829,6.79542530660723,0.10284707018493328,-29.602159826313482,-8.470854615581468,23.22429697655205
1100.0,7.0584364577362315,13.257532643127021,1.5532794737477198,34.00732896006501,21.902668224530938,-22.013412763896294
1120.0,-7.172826071991981,3.36030285197062,-5.026129760564509,-33.821560870660356,-26.775271632477107,-22.700427553856493
1140.0,5.038795616275766,14.819084063191648,2.8253979891707908,25.43403552205516,17.009595148680898,17.06055219042428
1160.0,-1.2003099915067073,9.784834415952046,2.1560425120355893,-12.635859362616763,5.1131780597106955,25.432650236327287
1180.0,-2.3754362359029626,9.035367272554012,-3.876944155595316,5.250973131197162,-20.146033230069335,-14.929065346613262
1200.0,4.304040066838102,9.275042125985069,1.6822972851338795,9.220057547004288,25.99208867333998,-30.793868788010982
1220.0,-4.762539171861789,7.548526969498881,-1.4415545644841954,-20.7082733566029,-14.936494047476932,7.397010299782563
1240.0,3.7250679758100618,16.637634116014738,1.1585138987214416,32.32484383149276,0.07497858219900122,28.861030021165927
1260.0,-2.4645017113581407,4.524804985531132,2.5811371367344176,-35.98536054153718,18.82655704273408,-6.312062304292911
1280.0,1.50367788172289,12.42092372661115,-5.67223925300263,35.9488195509692,-24.172126827561332,-30.343985518083112
1300.0,-1.5075528665455442,5.7094800903538,2.292125318655546,-29.9577506310748,16.94102090779362,2.980947233817799
1320.0,2.591974087609605,15.173999031789286,2.0612098917796446,20.713981367858487,-1.1647954630076418,26.18688001076906
1340.0,-3.4107814304540702,9.049299566711488,-2.132081193358246,-10.526261148904513,-17.496630228437553,3.7094904777741906
1360.0,2.2904579044573063,6.480790926312628,1.6980894601405234,-4.193546061745607,24.111485259161835,-29.253149592668493
1380.0,-0.21484246468846574,11.419502171057815,-3.059871793871481,15.665644766899696,-17.409829576382798,-6.633384207550499
1400.0,-3.4661391603617715,8.440028724979266,2.3908180322711217,-25.720703995999692,-0.503757724308187,26.418988029845657
1420.0,6.102116474292377,15.999091461801871,2.954876538357106,32.15931501358574,20.889922652310073,16.452654451215473
1440.0,-7.3132681284603,2.5678184143919354,-5.296852879301297,-31.66742527244663,-23.853559908552633,-28.653097822907455
1460.0,6.582510617395434,13.40279432311119,1.6688718706412264,33.152977475825644,21.002977949025823,-13.652481197465182
1480.0,-4.0909715476112245,8.070535153372454,0.8092654043571299,-22.610480421213975,-5.180493825560874,26.599758117125877
1500.0,0.20206345849585453,13.441018404265725,-0.54529595649685,11.092934275865636,-15.886989832175056,21.512814534173156
1520.0,2.526855454879538,7.687477279634753,2.294656201579012,-0.3379957641944471,25.05181879913822,-22.2496432845361
1540.0,-4.081989057337832,6.266577421151146,-4.524939680888441,-13.437801158750773,-19.685784609261944,-21.10863748622291
1560.0,3.5093229295949824,14.413705496117405,2.1215335914682134,25.359930770947777,7.100746698663412,17.583486686894823
1580.0,-2.5111145203530882,7.412476231520822,3.186782745892991,-28.074031842937405,10.360685965719524,25.543953983653182
1600.0,1.651286896145726,13.3622808145022,-4.51592765286567,33.2318088768012,-23.84327600744209,-15.59206999953016
1620.0,-1.6397909477388402,2.7926599356539823,1.4924140420334937,-35.67480499010439,19.247711499927682,-27.106668951673182
1640.0,2.4300714966085324,15.270685573445498,-0.6334411387108755,29.927332978433995,-11.993624745761771,11.090819526000951
1660.0,-3.5655034413637536,9.493347021916929,0.019204076308039553,-18.48079922190422,-12.233710935997749,27.240992869752674
1680.0,3.750750160733814,10.639039739976905,2.870627465037753,7.427736851948056,22.267579141207904,-1.7229626979470307
1700.0,-2.211517924692099,8.116236890946405,-5.431096728700152,3.7151326355871164,-25.16808118343626,-32.19835550070368
1720.0,-0.6800927918321577,7.052351827367524,1.6625170879658329,-17.566786022084738,12.670810307521723,7.633528236413815
1740.0,4.615456040370103,16.13802522438557,2.981843420630724,28.82848441490618,1.7249019418118587,27.75528881555133
1760.0,-7.110432396380216,5.304931260775023,-2.8624103997781236,-33.06828243881108,-19.651089172315857,2.3853255687787716
1780.0,7.282948458708692,11.993138399386433,1.400897440638442,33.583176480659574,24.411276112821746,-28.287922688745287
1800.0,-5.686720088889223,4.76634910421546,-2.2647671649221395,-32.405441490845476,-12.70659410693576,-7.576175169902951
1820.0,2.644928941882091,15.554248308222627,1.0382241175148277,25.928629205579792,-4.231817030681881,28.08767669807758
1840.0,0.9062340863420628,8.826705673651972,3.619875883228456,-15.548194074890375,20.594131173302625,11.81070030643778
1860.0,-2.654014875912571,7.481568304460223,-5.257224414513881,0.23673493323767814,-27.38263584379791,-29.76762484543106
1880.0,3.3604350027428986,10.194154876764465,0.6428516624174827,13.587924346648254,14.483619253032831,-14.042505453122542
1900.0,-2.686879640248881,8.618921945926319,2.419422743689928,-21.615436294172806,2.138934398091499,21.818310655757443
1920.0,1.7143883538020068,16.425922975733304,-1.294471041649567,32.569235824289784,-20.00515578581559,18.178989989152143
1940.0,-1.7291462813510963,3.250020179458301,2.186987091579554,-30.446075501891173,23.251633741894764,-18.11279654829528
1960.0,2.531239029084345,12.523598672674373,-4.076262314986704,35.62542528139067,-21.861569722105465,-22.82324198305691
1980.0,-3.531163174631544,7.647814151108055,1.068941536332166,-28.99505956806304,-0.6936694179032634,19.314845410685198
2000.0,4.838492278936407,14.563938527568911,4.100981596473721,15.224832203931111,15.067470047004765,23.712751594083127
2020.0,-3.535090468310052,7.4246124531982955,-4.704188269006962,-5.69883399535604,-23.783576448536486,-19.52613279958609
2040.0,1.4911343824822867,6.857267112180753,0.6177427277297922,-5.3918164022251585,19.47730706646817,-26.74646435477337
2060.0,2.181311387609033,13.57489179210823,0.625319714138924,18.866065112976397,-1.4683004793918384,11.262625559430338
2080.0,-5.279341870332571,8.559969350425432,-0.2716779188694425,-30.059998168215255,-16.916444668186056,29.538891120888426
2100.0,7.709492635980446,13.890404345964505,2.5252980663105817,32.84993776978914,22.912513678846793,-4.974029582763577
2120.0,-7.053942135896815,2.5119275956549556,-4.810707839512249,-32.41133276141924,-18.72153853132242,-28.95652559675237
2140.0,4.451106547710302,14.908641482115105,0.8445493331549354,31.2045614479039,3.1943426970115305,-2.06070071799543
2160.0,-1.0971808193929407,9.118556845200823,3.994190735245899,-24.68236254089899,14.692530087346505,29.801205935890465
2180.0,-1.2192775920655525,11.736944234044831,-3.2296919623534044,10.112895329093412,-26.594175786214922,2.3667658707166392
2200.0,2.560975649791238,7.640742838354819,1.176552596513044,1.7211256811052058,24.067814809475436,-28.666736924154687
2220.0,-2.758311998891642,7.252245829983791,-1.4285816317142939,-10.737677040135194,-4.3775812899949464,-4.567576423966226
2240.0,1.3588544997710006,15.418877625482674,0.05935069212281155,24.684172890608014,-9.675706480790545,25.740667498507406
2260.0,-0.9849917410322836,6.2666488676757375,3.9260082986547817,-34.28045452878817,24.292860026666766,10.712769182498166
2280.0,1.882686284290552,12.77805290363304,-4.668840759870464,35.476145079640354,-22.57909813323849,-29.531240143656838
2300.0,-3.1919950897269604,3.7071638433014833,0.11590197377434686,-31.78452234641888,10.027608652495042,-15.335626964047878
2320.0,4.7718307203497545,15.68946454513789,2.8923700676013286,24.448466192346807,10.007832274501224,22.012448720149244
2340.0,-4.917438366280568,9.019232861594922,-2.0857880475230433,-14.287914615450074,-28.09026676779769,18.879909641210215
2360.0,3.2382402193887434,9.06395480609005,2.1446632729031023,6.389082131516138,23.207469527571828,-23.264773178057723
2380.0,-0.1669569820558026,8.968868505212022,-2.8042108077599526,7.750481070250683,-7.180344642700627,-21.29537364698421
2400.0,-3.2275456374561458,8.79594888397353,0.42683331372453914,-20.423388238579346,-9.566028248330781,18.819040937298123
2420.0,6.390002455740481,15.951495815986988,4.650478787947013,27.05224909584343,21.796445920696044,23.16879496062007
2440.0,-7.130515803179275,3.824709304806269,-4.4069021007889635,-32.81809886727795,-22.813662161293127,-12.450964293427553
2460.0,6.181350881117878,12.614963668577838,-0.031138223560855494,35.64424328452519,8.328427719681859,-26.070436634404157
2480.0,-3.097144938100462,6.43512573237093,1.5381218311316482,-33.400359214174024,7.091410161735464,9.455669278534565
2500.0,0.7563047863332331,15.001169545383627,-1.2743985180133057,23.745783391610534,-21.291721697609272,24.342365508820706
2520.0,1.75320034720021,7.365245884645581,2.734939556202271,-9.592891190616273,19.929516217475783,-7.12846768487239
2540.0,-1.6580661442913098,7.086124631066524,-4.017860844294739,-2.871425583397178,-16.969941318393907,-30.24369455684546
2560.0,1.684965738906572,12.173353862432116,0.11420164267673011,10.369951227502229,-0.7948253119771831,3.256028876575452
2580.0,-1.0073256550866616,9.059021826247097,4.7152957946709595,-22.98431025903594,22.015296180851966,29.73229436966156
2600.0,1.442770261664641,14.648736033094828,-3.7333787161016474,33.28303224290969,-26.398494862587874,0.09295056309351973
2620.0,-2.4489133110957884,2.712370038627302,0.5233750772543629,-31.209741865343137,19.55701734261385,-32.20150878766842
2640.0,3.8893477681414255,14.135079820112075,-0.23487573019131047,35.349202259535865,-0.9478104554649782,-0.1692762932782772
2660.0,-5.3961682625300655,8.50400810411301,-0.3458901525138941,-29.211113989666536,-15.13790240679992,28.956616678672574
2680.0,5.369634487212909,12.860178879741236,3.8052076098240213,17.5076650883808,27.4847126552096,8.911656515192458
2700.0,-2.820475865234518,6.941611117904135,-4.307532941573095,-4.912605595898215,-16.63731092889567,-28.539698334915947
2720.0,-1.0867787053981353,7.465327385502573,-0.41869424490382495,-3.8657303350354892,1.9722654698171969,-13.045190028932657
2740.0,4.396394434039774,14.824123281298483,3.7692853212740602,20.302438379154776,14.422227368664105,25.392088938987317
2760.0,-6.921104104285762,6.699013942544896,-2.511904752364991,-30.774855987938317,-24.662026052754133,17.122627753766434
2780.0,6.7399281947500755,12.486048090655716,1.2889276078593201,34.24790049187154,22.850665890542878,-24.66397814870726
2800.0,-4.923828515058372,3.1691691246093217,-2.013638026612788,-30.03512012540229,-5.0703731534363365,-17.19904713828098
2820.0,2.2033779071695223,15.535359258255419,-0.41625282551854265,31.15706314404241,-12.346047478065517,23.41533864788865
2840.0,0.20313820362187238,8.710990306734642,4.680384732315182,-20.330487264003178,24.94815770395069,23.348242085918518
2860.0,-1.2881611538171471,9.870399781942313,-4.345774752542179,9.059302917063157,-22.193094668113105,-20.063462976720615
2880.0,1.4050052114002116,8.10542766550302,-0.6526148218936059,1.0460345180651458,10.40775481026464,-25.414822325450967
2900.0,-0.32632232980958753,8.542677963404742,2.4446569754811467,-17.343162701030245,10.9816160752576,11.159325006580392
2920.0,0.8234476683422487,16.018438502434062,-1.4242341220242734,30.378208852888335,-24.224283947250665,27.91260601378221
2940.0,-1.172653842651097,4.265199462297806,2.62187654815352,-34.4387026944195,21.18453307015078,-13.659897193469739
2960.0,3.675581033782887,12.169306064154965,-3.3489217071722917,33.037056209219834,-5.747854105388631,-28.042336333694895
2980.0,-5.59678285000964,5.945074993049651,-1.297515142317417,-34.624959445921775,-8.053211989019172,7.8138382020774
3000.0,6.043129872551325,15.637383650629314,5.172883170820171,28.340751668336175,21.843547659297542,30.605602579880685
3020.0,-4.920556171630421,7.516874009393538,-3.583688462657876,-13.955189766158586,-19.53108626849263,2.3465233723099024
3040.0,1.8575892519680641,7.967356852034966,-0.6910042298546468,1.8724688618567984,10.463024057661118,-34.0540767505492
3060.0,1.455002773874221,10.728868136986419,1.0163265642683952,10.881853901251262,9.860566936635854,-3.6557694142788
3080.0,-5.5390592210692,9.420661430319203,-0.8488971820909099,-20.78567762484955,-25.347624056638704,29.752082554602055
3100.0,6.639882131880145,14.810679645274197,3.888065663553662,30.292517329965136,25.865482841420263,5.596028579113394
3120.0,-6.243515394511734,2.3250389048419633,-3.9090365172844543,-34.96790742255009,-12.073171852809732,-29.786816517832527
3140.0,3.5898479599999225,13.928815352036004,-1.6549778694952375,39.38290583182017,-2.9752380772029987,-12.810299731798263
3160.0,-1.2961547038410837,7.664283288923217,4.644395106966914,-26.909811901351905,22.792010397556155,25.681456743820526
3180.0,-0.4125045465935715,13.87010773063604,-2.402999720035515,23.982492707794485,-24.148851229012287,13.581825784080774
3200.0,0.2606539525299459,6.570689894187715,0.5575978193340481,-8.806950608812645,13.030628901674914,-25.63913371306008
3220.0,0.08345492042779798,7.622719690103722,-0.7405014358059828,-1.3461412446594228,7.145609671358196,-18.94934387693495
3240.0,-0.5035747228630569,14.116153726507445,-0.7947648175216482,17.136180163873327,-18.803086161260847,23.269604550522963
3260.0,-0.7073767960021877,7.821100423970885,5.42661994261404,-25.999966983712902,26.47007061693186,21.22414152541088
3280.0,2.248039990151276,13.11334315366375,-3.7176684730673712,28.135495527700186,-13.889754001719472,-16.404461900655765
3300.0,-4.444992477411109,3.1425973402398624,-2.2007948572884226,-34.78176792378124,0.46635031037919417,-25.03249110894281
3320.0,6.463038126623172,15.759100577354758,3.464361999282006,29.4697001987361,15.621753146234056,15.573701737513085
3340.0,-6.483828384343208,8.304567911504147,-2.0474440929288633,-26.847416219991356,-26.33384744519564,27.289730439460712
3360.0,4.386318114001219,10.612679139874515,1.9537441627919696,15.218131711327501,18.123488613947835,-10.289118088225333
3380.0,-0.3289058502871163,6.834892771694498,-2.2880335482331318,0.7130196166072282,-1.0775137848369827,-27.66801596721511
3400.0,-3.2627439035298202,8.935487576629678,-1.9185154158476003,-10.582141187206227,-15.281595818103712,9.268436850036785
3420.0,5.454055110101651,15.37889799810173,5.372932649601015,17.69652255101459,23.546591409162776,30.748767098873977
3440.0,-6.158028141672971,5.172821564330591,-3.0983075931836734,-32.812928621994146,-19.456028293350602,-2.8407706345671797
3460.0,4.866519733441926,12.433422942990632,-1.4601140128534114,34.97830929257173,1.8462409179423416,-32.17913391689325
3480.0,-2.5840342543935226,4.661380773417771,1.879666513384158,-34.057266810861854,15.659563522308162,-5.080684352807259
3500.0,0.7492318523248475,16.039352886430144,-1.0005128744162648,28.81845831372529,-25.81295881067808,30.178408506228358
3520.0,0.00659781741053198,7.411569699318424,3.3406979157371213,-19.36360871877026,19.8209819462115,8.214980416416868
3540.0,0.24434600993915054,8.615131461326378,-2.705361763688531,8.580414075584446,-5.226601588163264,-26.725858603486785
3560.0,-0.7344385519460268,9.556755122441785,-2.608499024475667,3.6235102430304487,-11.782995436437414,-9.967495786870787
3580.0,0.38678820447603424,9.460158611750678,4.842563661235284,-15.044783694987883,24.184055374025146,25.991938345548625
3600.0,0.7259009795599699,15.013897156819246,-2.104977053541007,26.613282872362266,-20.493155478536195,12.621726438289535
3620.0,-3.7991134194476195,3.123170907343592,-0.2873601039104762,-31.122010562500797,5.636997560408631,-28.812739517278494
3640.0,5.721721232749888,13.622538052602511,0.22541426080826124,37.11522190134721,12.05306822866892,-15.645890752315918
3660.0,-7.231824572370041,7.13007634263649,-1.6938646957395416,-30.9436479965521,-25.282344350797004,19.630806813587576
3680.0,5.852514193591215,14.820683002536683,4.842806832741679,23.89540892113894,22.090073546618132,21.64935497816899
3700.0,-3.193488241703097,6.124431789744774,-3.1342018848456332,-10.622871896929432,-12.561397994401968,-19.515005905355338
3720.0,-1.0197193476737014,7.715066312413094,-2.4860056629166833,1.6885867020802667,-6.064963276928733,-21.82947789727618
3740.0,4.139277090766235,12.846685561223989,4.4655840499791175,12.720092503332584,21.0842873289162,14.191995364660885
3760.0,-6.220395690905065,8.962817228973016,-1.4142103470521312,-25.313435879304624,-21.273348653123563,25.802915456901577
3780.0,5.263661850204515,13.528445520058858,1.2364550879477907,33.52814956591182,11.240103817674333,-12.055071505164591
3800.0,-3.366987028392987,2.337334115759723,-1.1717317102862828,-33.174841539434794,6.930019403402123,-26.488921078023353
3820.0,1.9630564224151963,15.748339381956521,-2.7375338594708607,34.09974727154557,-23.683591037749455,6.332320609919039
3840.0,-0.604311161751149,7.75440179889233,5.627717317600092,-23.368677387323608,25.408248155089684,32.27425874858553
3860.0,0.6158651468716911,12.281735551703013,-2.641769956291875,17.72443980477567,-15.563088123937606,-0.5479244950116691
3880.0,-1.265925478359917,6.2341916384819696,-2.1153719931186727,-6.354290026983041,-0.8904479952840223,-32.42457493573061
3900.0,1.604949267872964,8.656768498822816,2.959866622264465,-7.816263401007556,22.380537229260042,-1.291309807814243
3920.0,-0.9803067049615595,14.633551826176593,-1.6911619859272193,18.10131416517894,-27.30508165792825,30.591469698937882
3940.0,-1.6684274308053817,6.2338716706962956,2.4277294932260394,-26.21536995952444,13.398956742553555,5.299572185175988
3960.0,4.782631967494149,12.057171358354394,-1.7104205001201616,33.2684198025178,0.7177306335102963,-26.314819211017824
3980.0,-6.535303502857906,3.99773291722135,-2.81031148339674,-35.428912260962036,-20.971137242229688,-9.368290851704582
4000.0,6.982532496278915,16.72598465051884,5.07733300581327,33.688558097967814,21.19200201132128,30.360275722637002
4020.0,-4.953873460106822,7.53614237799425,-1.3466129541840064,-21.84332780178925,-17.15099905288381,12.87410033036621
4040.0,1.7180610244321,9.113551312890168,-1.5826295550044585,11.913932242040309,3.598974019692662,-28.81928522164744
4060.0,1.872573173498926,8.498510718718023,1.3107557467471345,1.5047470628379955,15.914777803156248,-16.306169810724555
4080.0,-4.803590179707243,9.76541795476231,-1.5674605840230473,-13.959045374337144,-26.85366743540014,24.00786408615475
4100.0,5.2417922435714495,15.10378221508311,4.012418710010268,23.469715467097082,20.11759718745714,22.353328083719244
4120.0,-4.426928633911358,3.757316283957707,-2.221426499021018,-31.28749052701357,-4.424658537418868,-20.80436443125426
4140.0,2.8289845639165843,12.999936031692059,-3.496988051837985,36.00019659716004,-11.70548521505786,-22.115760409666095
4160.0,-1.722824190293643,6.66328269950246,4.7115075066361864,-33.56007841932026,23.524605194205794,18.69649543699943
4180.0,0.9503274677360902,15.557182367173217,-1.334809291193285,26.71156667074415,-19.284096329615437,28.692476696719698
4200.0,-1.5498301120724718,6.291908660119053,-0.5632625273614233,-18.31453176377815,4.001242746033483,-15.410538477647854
4220.0,2.1754677165535283,8.29879755985836,-0.33167652027404115,3.9227901940841363,13.376813840470481,-26.579979577992333
4240.0,-1.940261798282452,11.50816268090073,-2.279450640726946,8.42354670242662,-24.03881925219654,10.03231411104771
4260.0,0.13583087628454626,9.746658574865748,5.1859187278711705,-18.545750308858864,18.851566080273148,29.206384135386745
4280.0,2.649661214855809,13.455451841725385,-1.5100269703761962,30.055709040148166,-7.948899503672193,-4.414315687255392
4300.0,-5.623913370801158,2.4529866450878313,-3.400128323780761,-36.410080586356834,-6.700548579063901,-27.023697389122567
4320.0,7.200650832897958,14.97430167205671,3.4077691945411606,37.659482127955776,25.08931347302901,-0.7448052905377107
4340.0,-7.032787347223954,7.653999245089576,-1.4818086033524804,-33.032211668362244,-25.046886252541682,29.787523787061563
4360.0,3.9608571679892877,13.270189942530765,2.0170455650020873,24.696516587110214,12.351466342583398,-1.7631374676127698
4380.0,-0.3280172884798161,5.665201513812142,-1.1133585470145124,-10.82041957637553,7.5737653336290816,-29.923230365770888
4400.0,-2.467388136341237,9.281692977661557,-3.525211004389811,-3.053877092205072,-15.43591710721816,-7.599219143034805
4420.0,4.8642011836486425,14.625689351454252,5.304209477414916,11.719539698891609,25.07526731736695,29.663189874513776
4440.0,-4.87427134503867,7.15257055267572,-1.220990091195482,-28.478745208631707,-13.902988234444072,10.565115646837226
4460.0,3.484367770544556,12.02676979972984,-2.5790376386568235,32.346690845890194,-7.306711414740278,-27.85352545318896
4480.0,-1.8795651567545881,3.288052478107239,1.704687603041247,-34.948265431871796,19.36755331070162,-15.402636363529256
4500.0,1.3870586785619636,16.411381544285494,-2.096901642951091,35.42190789613815,-24.567136214490624,26.490541086825495
4520.0,-1.9679359574067816,7.584861284033177,3.739005050605689,-28.33581674786317,15.369653723812487,18.69301027611244
4540.0,3.054236428447597,10.014078761125466,-0.45297129270348524,16.518536806468063,7.205535199466527,-24.11936944642298
4560.0,-2.784093592796993,7.452399638848125,-4.0290055125777915,-5.006204882753898,-21.32284345030931,-22.23019287063666
4580.0,2.1523682275112495,10.49923049995334,4.675409637358,-4.660178787545583,24.35479688354808,21.96546882967235
4600.0,0.7122152696856593,14.716355690497158,-0.32676683426102887,19.030675540884005,-15.105176832906174,23.81039963589247
4620.0,-3.8539581418436875,4.441611313948988,-1.2343415281982804,-31.59941871243479,-0.8483786260529074,-14.370027559993567
4640.0,6.4765268365755,12.420469082682622,0.7290995809662946,31.132365413225745,17.089561846182168,-20.162687196949463
4660.0,-7.620604075927166,5.664351467476072,-2.553019683560696,-31.037342240090002,-23.314921324310305,10.789581107478345
4680.0,6.049164547793409,16.93624043081006,4.857880499564631,28.68640751771775,20.657014844941767,28.89887771697644
4700.0,-3.12402763177367,5.963722718368996,-0.7742585898271228,-23.03538653249986,-4.216501901255303,-8.44752875376061
4720.0,-0.4637725031337391,8.82332255238025,-4.170760183071382,10.760104220535675,-13.838776386772766,-27.140692407712425
4740.0,3.122808592374166,10.468776364501066,3.6769992910893223,-0.6011240309798973,24.556154925432157,4.41642588212189
4760.0,-4.25325147350689,10.398971697489298,-0.6660218137692882,-12.858607263457136,-23.170533797921898,30.606692986478834
4780.0,3.738360248047841,13.410900034656411,0.3707165834010099,25.17672774103651,5.512800351315946,1.3946060248915932
4800.0,-2.278729726945796,2.8935005652285453,-0.09229640607508363,-30.842863561830498,16.808584389900584,-27.11011024321102
4820.0,1.294530087873972,14.217063532816947,-4.012551722365203,36.866895897836436,-25.261305754210085,-6.739392232869532
4840.0,-1.4863473069708388,7.730719291428223,4.5132606361811805,-34.961492195655254,22.438263974008464,27.321504458255458
4860.0,2.7496567229242377,14.368995985375472,-0.114164839811874,25.273158377754037,-11.985125838055541,9.476339161977286
4880.0,-3.905483165026154,5.248921210580489,-3.3972795227175636,-16.99899811003445,-10.806991205820681,-28.64513998713663
4900.0,3.1029530268974024,9.216773986474196,2.6477748404071795,5.777350562220315,24.940202346886522,-13.02092985815684
4920.0,-1.7689709191527205,13.177291474006251,-1.5723865416226839,8.821601791202006,-23.1929698676604,28.676621640425118
4940.0,-1.9721444282634026,8.314321828657748,2.5722959977095727,-18.956466444621192,4.868156426102029,21.235329910001706
4960.0,4.566660842672102,11.991095406426085,-0.16756110489570414,29.885103783908693,6.263349392692911,-25.135949234571708
4980.0,-7.399900505197475,3.3354930030653014,-4.913392156873832,-34.19449969228387,-21.954857416277644,-19.368503240721417
5000.0,6.891397460565817,16.257650795163652,4.447399825030118,35.642381141216816,23.212073038126167,19.958317406834603
5020.0,-5.038785495793918,7.578851738648732,-0.2879238371535737,-28.735815303215574,-10.984413167137713,26.062412504923945
5040.0,1.8386327130970057,11.66522350002085,-2.155189096131568,19.398062716917977,-8.180353459952766,-16.568654806696134
5060.0,1.4366896287844344,6.325359093716542,1.3168626694496115,-6.973885863988597,25.36152714677571,-25.561008657392755
5080.0,-3.3281811875344154,10.792044083871392,-2.5308389155108615,-2.3974283941362637,-25.77344075007992,9.561078759852801
5100.0,3.5224068790705294,14.24568148651125,3.7643562826024075,17.50750985510781,12.726601720450866,26.69801718765639
5120.0,-2.4310652569659905,5.140649664282288,0.16685751924055298,-28.183242060281447,6.508819503498561,-13.336601257395966
5140.0,1.5740335547440167,11.853378906852386,-4.560599757693792,33.044402772312644,-19.133496204743146,-26.08111780658842
5160.0,-1.2372486555514197,5.484556638301159,3.6639516448823555,-36.49326394955036,21.620927710615078,6.715487473364305
5180.0,2.610328187910181,16.838468814105287,0.12888108696915257,32.495552469478135,-15.588130990388805,30.296520980612225
5200.0,-3.7782351279204027,5.881686142129276,-0.6163812606891119,-25.87081864110683,-8.010571909579808,-0.486870601687921
5220.0,4.667606809433404,9.287556502741136,0.47216141225699537,14.892812969020328,20.99004982782243,-33.48014883046993
5240.0,-3.614235378938345,9.235033805990227,-3.827881059299708,-0.048933715963046964,-26.996963571696664,-8.538689202205761
5260.0,0.7534302582007905,10.981419911131162,4.238309366291423,-11.319941765675036,14.965813589075148,27.197992578523646
5280.0,2.768709602905117,13.579429976046178,0.44437626271891634,23.19375084417657,-0.23636634443592097,9.999639048991806
5300.0,-5.836646329988077,3.056544660890565,-4.2752046440853,-31.447168083497576,-21.94456745681467,-28.97066329953044
5320.0,7.710032812591362,13.936158786261714,2.7164337161022,34.744133118457135,24.983759025111418,-11.348251642996226
5340.0,-6.3296039819963426,7.111935199029893,-0.7684051020450303,-34.50869115209009,-20.07395180496532,24.904135199120127
5360.0,4.12913718821488,15.087437370663167,1.047691364422114,28.670712717506053,0.06851463712277361,17.153543072022725
5380.0,-0.7765912690829768,4.852810843783081,0.7203078876189744,-19.644325245799198,17.762465229158103,-25.802756558235775
5400.0,-2.0365057585520097,9.400596596888708,-5.145677977726304,9.846119181460447,-24.75269037800273,-17.880527601551528
5420.0,3.0701308720973564,12.268424527009268,3.8784777721777504,2.8393591092366695,21.577932206879666,22.297624253425063
5440.0,-1.9916865405629394,9.264728865092858,0.9354050752715188,-19.072901117958732,-3.729886738667527,25.870057453339065
5460.0,1.5875292093940252,11.731795759155588,-3.4705329865948955,28.936091134266896,-16.53371082921945,-21.896617141793673
5480.0,-1.0485557508402152,2.8095239198353257,1.661160978387134,-32.946759893887005,23.554775325273802,-26.523278565820455
5500.0,1.942320140900836,15.80965385841538,-1.8917445838659583,35.62257262207152,-22.497902685746794,14.70391610831286
5520.0,-3.3131273910304846,7.655214064771085,2.905066528297196,-30.45434697511353,6.021172170540655,28.31548692018637
5540.0,4.714381895496934,12.112599772398518,1.1850491779105612,24.095208060712437,12.398079154066213,-8.283716726620783
5560.0,-4.59074016426641,5.285049487581418,-5.162879525954625,-12.994758945574178,-24.100226448485728,-28.43070900967339
5580.0,2.5670718531914796,10.51788579130139,3.5868798222582168,1.9378205912062971,19.90111062179105,6.0435583434264135
5600.0,0.4975711540855852,14.096948626541367,0.7275355265829442,12.28949068070868,-6.002504257825352,28.275874079185723
5620.0,-4.149127312080598,6.567668540632445,-1.8495241974460987,-22.091412638674836,-11.822382574994666,-5.149599108194209
5640.0,6.84259378713252,11.419246963434873,1.0596402739175066,27.49445925810945,23.99514017128816,-31.148442003893162
5660.0,-7.134821498041219,4.906590152164819,-3.778954473176399,-38.29432671023785,-24.314852410990234,-3.879217188286188
5680.0,5.846462836433845,16.81462807635393,3.2428946800513487,31.533833546317073,9.736533118814403,31.73704033332372
5700.0,-2.773840644219335,6.295719880300711,1.4093989317703028,-27.511572267057723,9.431956644434168,8.532719008230966
5720.0,0.13433135788189787,10.006800311970295,-5.056330263799446,19.958276210912196,-19.35545838807067,-26.978932801047122
5740.0,1.927793215803618,8.007193632526654,2.7961587902796983,-5.775478141317513,22.880719542368453,-8.90942570358632
5760.0,-2.2849994570453673,11.266270561574744,0.42169986048346986,-3.522838221365084,-7.836172581141179,25.43401169439958
5780.0,1.2653566559085694,13.72302295425198,0.45061873911942146,16.410729470811283,-6.460743253255722,14.957611698359177
5800.0,-1.3257056404700576,3.5649209177450243,1.396066248951879,-29.121722369042025,17.4701045244208,-28.518738746243685
5820.0,1.1680893107057275,13.167792156652949,-4.879189859360986,26.657652273069136,-25.16881087242241,-19.14594476896541
5840.0,-2.8527734142829906,6.615401303011274,3.8082240551768263,-32.99649033303066,13.64045965821375,23.08701506346194
5860.0,4.64591009646935,16.377766928567492,2.15183073784851,33.161050056949506,0.3916615218686128,14.765490258339007
5880.0,-5.8677054912725195,4.735539773592536,-3.9207252971152378,-24.822719272815313,-16.123098839432608,-19.6552957305854
5900.0,4.335442200988343,9.78981126032791,1.9138575674562028,13.250225070343635,24.330388473009283,-25.812467647894376
5920.0,-2.04124800249986,11.270034949996635,-1.2086518431877527,-0.9345383985801048,-17.294766596465404,16.64238944142155
5940.0,-1.5200883258650564,10.044366847228801,0.8958484198516844,-13.339777367450466,-1.3258961030822194,27.549294746181708
5960.0,4.9928487360753095,12.125260996146508,1.6189248494988102,21.604824284224247,19.790580173126447,-10.278409549620337
5980.0,-7.061434239314646,2.8251437355899087,-5.474632252233603,-34.46250001818487,-25.156852099270747,-26.55244010544774
6000.0,6.627441751769611,15.526402899499248,2.773915090057153,33.60932868957941,17.693364255630748,7.303291087096311
6020.0,-4.584827352468986,7.325757575783869,1.6227073840449642,-34.494043604731424,1.2790859866633473,29.88818944946054
6040.0,1.9586096843263299,13.315079299499676,-2.1597050925419303,30.40093231552133,-16.539267978474715,-4.6559845377069715
6060.0,0.2264102809236872,4.677431642674781,1.3484023413221342,-18.56467144659064,26.944538595960047,-30.08370137265874
6080.0,-1.2756630733347325,10.991922556249822,-2.702908474795808,6.3175549085869855,-16.483994582571523,-0.5512606336327474
6100.0,1.2946372106600423,12.796579013600292,2.2178902298121543,3.282874004785051,6.65815818633572,29.891158623616242
6120.0,-0.22634975542162727,7.532990069815904,2.536625569783793,-20.136673766775047,13.227122715244384,3.75317878208752
6140.0,0.4815324245778432,11.258444418754841,-5.714291412490134,30.16607836598281,-27.38320692857576,-29.769837277443873
6160.0,-1.684335356083654,3.990310753841142,2.4160166156983096,-34.27717004964655,22.626645610389513,-7.815046641779575
6180.0,4.125197948567038,16.93581160023142,0.9174815618799541,35.82303226629639,-8.085578556026224,29.347720636487956
6200.0,-5.494839810548387,6.141814823015417,-1.1478725429358538,-32.56978088499744,-13.527348694043503,14.096162541985452
6220.0,6.099223888529704,10.761503495131377,1.770459522536016,25.56755416332252,23.908836689713247,-24.96110238948785
6240.0,-4.290524983873402,6.923005099882098,-3.9898334763278904,-10.562483036030812,-20.03833657898759,-15.903558742955745
6260.0,0.7047863440680886,11.732493406993605,2.349824862778154,-1.2416529262270994,8.01224806428201,19.21860156587448
6280.0,2.7652446104910497,13.042056199201223,2.721170016621327,14.1332789166349,12.731158295349147,20.238254394132134
6300.0,-6.102555465843423,4.5535575463699525,-4.673316050851392,-23.480594576899975,-21.648970629012158,-20.9714694488112
6320.0,7.029037773890846,12.482196203002808,1.8406880451964702,30.835794465003133,21.3224064472878,-22.185397399842945
6340.0,-5.878594064610281,6.7700228904936335,-0.5792947212959333,-35.67691614233027,-7.025915343406136,15.924639743270188
6360.0,3.23545097477844,17.18791990774911,0.5405731131974254,34.26209939771822,-5.924099893959858,23.273252995749036
6380.0,-0.7517771157155054,4.9281080387007465,2.384066760900553,-24.36026687991325,21.863527111785203,-12.06927895931093
6400.0,-0.5573990025625744,10.133048369670457,-5.178293144536934,14.507429121999468,-23.870123599972523,-23.901417949713206
6420.0,0.9963893840870254,9.51162211213287,2.049617706079814,-5.332608746670295,14.010818062727873,10.422742074786704
6440.0,-0.12179689523150553,11.164027212162026,2.7221302745225264,-7.8701747525259,6.967814519437503,28.359225285976155
6460.0,-0.23895624297760004,12.417678279111971,-3.2275459413242773,20.381422842754986,-23.331131567986187,-8.253764698121046
6480.0,-0.6987577842998095,3.3688723861734493,1.5242787829051372,-30.124511144979078,22.532736665929406,-27.602559535736205
6500.0,2.3076865953932635,14.761230512018832,-2.1354191892052605,36.36678402843716,-15.874605358341949,0.3703158538172875
6520.0,-5.131707247771674,7.677400342089799,1.529797367497073,-32.551726908447996,-5.551358358455873,29.89206570585639
6540.0,6.193727224454693,14.417843578691999,2.702467694395784,34.286199159396396,18.50473060683616,0.8575510296018258
6560.0,-5.690789872495243,4.147781912128988,-5.371865557194034,-23.79522057536869,-25.835307898294012,-30.858060587311805
6580.0,3.407235655404688,10.534133237438281,1.8748267794672808,12.766920812011046,15.752069368999843,-10.154408808338665
6600.0,0.5036060935761559,12.322130701829323,2.0262315679809286,3.7523157887765315,2.7570071186549887,33.30022890365516
6620.0,-3.640566358026581,8.434183842908716,-1.8974329730370307,-12.738776623633836,-19.33728883943854,11.337680801238479
6640.0,6.033636799914538,11.043515216906057,1.347039852637277,25.562373965668613,25.30750443756829,-29.735098434183964
6660.0,-6.3949843971125695,3.911128895472753,-3.331625597359281,-35.25296023851877,-18.376641679298096,-12.955545303546442
6680.0,4.505397897043277,16.149738706242854,1.8119935237323015,34.756099335500124,-2.157476453612343,25.598076049665305
6700.0,-2.2979401640695656,6.749706258483102,3.32071080886209,-34.254891834672385,16.758862882849037,20.24265056772749
6720.0,0.4457758991010055,11.653046887237755,-4.679153786604621,23.56404787475423,-25.199298341219194,-22.88118059679946
6740.0,-0.2417584943068225,5.250807975596365,1.142130767268333,-17.22599879584614,21.058147972995727,-19.665712510381574
6760.0,-0.23175460648581186,11.57795364948406,0.7604182102312214,5.887986474988791,-2.7530100395326618,18.176364500778327
6780.0,-0.5546025316480401,13.275081437636045,-0.17182880204382991,8.110150767129943,-15.526085773701427,23.181761581556504
6800.0,0.3663064241129503,5.773532909921492,2.194141696777558,-19.58125159545624,24.684197393727366,-14.407835956743787
6820.0,1.6547826596726125,11.793790310059755,-4.988894114899001,29.863952139418878,-22.217947842306778,-28.601924953756267
6840.0,-3.6245883582991643,6.1820820514604495,1.8827926396078905,-32.25384854965848,6.102297818485506,13.299100981294387
6860.0,6.1884506088497915,17.07009698528683,3.485729904080149,35.31917464127041,14.46374288546957,25.37565079643327
6880.0,-6.463760068191832,4.560957880762802,-4.083048001380025,-28.295063576230437,-25.338204730051675,-5.072419880491763
6900.0,5.2525615336967855,10.090658754215612,1.1579633583650832,23.07239046279741,19.588499503702966,-26.008014741497977
6920.0,-2.3371096040655432,8.616392606845308,-1.0916669616348946,-11.806591517108819,-6.374222585226187,4.351610709495886
6940.0,-2.0084547936541624,11.769772666473829,0.6887853026486479,-5.44761052885768,-11.376716544094716,29.050864280883584
6960.0,4.686059646811759,11.893371029755214,3.347898113063019,17.108504354117816,23.34722093482548,1.37167049439306
6980.0,-6.226660185493323,3.7238616084817444,-5.243194160055272,-27.79565346579959,-25.205481604411176,-29.955724532412873
7000.0,5.572794575842627,13.706041321583616,1.2040688349313997,33.53030286957968,9.717924471974552,-1.3809378489426587
7020.0,-3.380992495075944,7.171960548503145,3.298480003397649,-35.72463556790364,10.382270122179984,26.217227884816293
7040.0,1.5477342774479155,15.461973747896705,-2.407755835132428,30.491689131293583,-22.235502785568006,12.276957899004067
7060.0,-0.30633752490068045,3.719964511658859,1.5695069376784496,-22.600693694542898,22.48213881483418,-30.053626089230217
7080.0,-0.027919751907851897,11.147317151166572,-2.9153783760354446,13.979268270861807,-8.190712032207077,-13.17603930438954
7100.0,-1.1395771890008233,11.196650371087248,0.6196553892050324,-5.159995017388255,-4.737406178978093,24.475472937928743
7120.0,1.3712118173790842,10.067455572431996,4.06233667338808,-7.368362657166079,19.254145469519266,15.081560265337664
7140.0,-0.49161990492366153,10.796196870915564,-4.805992901071881,21.039409104878903,-25.813752813896887,-21.303435397369135
7160.0,-1.9210516073824664,3.93513572699794,0.3492925753028708,-30.198208275096974,14.05058438673263,-20.197601210853662
7180.0,4.810212312130392,16.25171682322394,1.6311286924019595,32.4850301698975,0.7368369439113285,20.704816374276028
7200.0,-6.4460528190600765,6.95416531835979,-1.4469269938851819,-36.72945620949066,-19.29072501133097,21.169463759878873
7220.0,6.574393526543634,12.522648151867664,2.617376910340733,26.955994376311807,27.092054342312966,-18.828208536661922
7240.0,-4.458770264397819,4.858112141163687,-3.607045788763153,-20.186062581247878,-15.236341030998387,-26.993917600740453
7260.0,0.7158199099092916,12.465708756163762,0.462670126364113,11.35536928572889,-1.7092188850741425,10.368101603999209
7280.0,3.0920228498583593,12.841658527282235,4.806942596654842,1.0612748453627288,18.426968770205196,29.68609310113054
7300.0,-5.385201708675364,6.616765508458399,-3.9463279657292407,-19.791100378912184,-18.32336301085348,-9.207350593012693
7320.0,5.704054610214727,11.375715688582009,0.7220579053000542,26.54247060407886,15.335129588471942,-30.008349323774162
7340.0,-4.524670119220943,5.230171387888876,0.11931041283365917,-31.23616823589121,0.8733041968622497,1.7640174888211733
7360.0,2.642660267347688,17.591302583012464,-0.28677492459867837,34.158174106137814,-16.00252149233179,32.54221502365417
7380.0,-1.0487453904284205,5.398433073597456,3.8065829577892907,-27.56269953775666,24.456163115546772,1.2664860615105695
7400.0,0.9325108515592638,11.280656090990211,-4.405128131099822,23.311187444602826,-18.445539816453152,-28.768859078807008
7420.0,-1.428797297844873,7.566362619255161,0.047826231202532654,-14.516721123152125,2.9139436631380637,-4.29261106087636
7440.0,2.340896606864976,12.506442509469236,4.100148845322488,-3.9113510109408764,17.468731755412982,28.91545599021476
7460.0,-1.8821439177678374,11.8721129207669,-3.3169817709194938,12.143401250089063,-27.390213760539073,9.365809794751353
7480.0,-0.5011921346227273,4.537391767744606,1.1373348641101337,-21.734747785808366,18.992429911310627,-25.84785317418501
7500.0,3.2171223468777663,12.939043843755949,-1.6074293970381335,31.87245221959968,-3.661965122111443,-12.569622768405736
7520.0,-6.12678377411403,6.890904154597283,0.10806155685587393,-34.60966669542758,-13.06757124659974,26.003470813155253
7540.0,7.062310277642795,16.37593862017309,4.82604893451853,34.72961004674644,23.916833387494275,17.210552997147165
7560.0,-6.531880647533671,3.4149146203065,-4.52043510346922,-30.183941277249723,-23.937051072647066,-25.211877635523173
7580.0,3.6228016130733423,10.754675894685121,-0.6205852451349758,21.247535063822497,10.483303637011112,-21.01953883690121
7600.0,0.19759425054977098,10.827015083331974,2.9393637270463224,-7.980390930222261,9.653934916927923,20.99138874646584
7620.0,-3.5929835605097273,11.060748592506101,-1.5398500757096414,-3.4605445216854838,-22.393288483556606,22.211439817070914
7640.0,4.732215744730848,11.042108758047451,2.4500084521153402,19.292949120009414,20.862785131598727,-16.36726808136201
7660.0,-4.533121286768314,3.6833753139731114,-2.8863830437086615,-26.66987090596792,-6.85313003069283,-24.548247501057887
7680.0,2.936441728913509,15.298519950150155,-0.8016728628488236,33.40257299046442,-9.217061154068118,15.615999171418379
7700.0,-1.9367633525699783,7.1388443232611545,4.65357366800944,-33.07543665454271,20.975978346616866,28.897592505659052
7720.0,1.2801829412753467,13.74006080260225,-3.9624428661726254,32.87455060483562,-24.240717350867868,-8.197090869428045
7740.0,-1.5826100767320312,3.9445744092080757,-0.5223647653152005,-24.862659859748693,12.170874949353838,-23.988894063191076
7760.0,2.513588062662519,12.088974444036024,1.5808904944561715,10.991310572080819,6.441673915156043,-0.6690869442905667
7780.0,-3.0074618280436076,12.06719065667979,-0.922600397089433,-2.907116647762016,-22.734598656933372,31.00365796661213
7800.0,1.2337503249078152,8.118099850854195,3.515871691122652,-10.553087250448721,22.45890295063273,-2.795714711647828
7820.0,1.1070559336951804,10.58037074478261,-4.162699891062875,23.33969217487328,-16.97757927558647,-30.08307969273893
7840.0,-4.530111400060387,5.142696854059969,-0.8987270542390488,-28.990378487431684,-2.4951352608702946,-3.6334871938842435
7860.0,7.0598552376902814,17.195629717156315,4.574140014704537,34.78746742811052,22.109911036481144,29.635744704713453
7880.0,-7.009511660755636,5.629668120834691,-2.864816626786521,-31.035194155060445,-24.10681745937984,8.747485432168057
7900.0,5.844431073172667,11.68199858589758,0.36116772729829455,28.25174033819957,15.512829063894666,-25.459903826568592
7920.0,-2.195248301640874,6.343002268020775,-0.13978778223222588,-17.937073554197493,4.986155898924212,-12.725907781513959
7940.0,-1.6315109752134334,12.870472718056948,-1.030426076617883,5.487357689712852,-20.446749385216652,28.789597492268143
7960.0,3.6474684890450884,11.630525013406634,4.508515704032834,5.539764330580093,24.109947560117096,16.789342124897725
7980.0,-4.774345288299664,5.234999648474418,-4.308031583170757,-17.063202325388175,-18.995314494575915,-23.68552843286562
8000.0,3.425127423369443,12.12189847779389,-1.5136218362756437,30.21644986056832,3.592780641564599,-20.557913354723475
8020.0,-2.4831274433592947,6.462815737231361,3.825048247290843,-34.45503554738564,17.269524708521683,22.514670015476035
8040.0,1.7082429999309268,16.43133203198156,-2.2748404801028714,31.680524627016528,-24.436584269624188,20.69690515530917
8060.0,-1.9884910908671487,3.994278806211718,1.8334280900379958,-30.622667896686284,22.732345225967332,-21.642685219106
8080.0,2.7461316270392295,11.28425596615278,-2.635770400775862,23.030062159287827,-6.299367497337139,-26.836755921061688
8100.0,-3.051021583671666,9.340717641341891,-1.0450541186617859,-14.86599352092459,-16.387080351883178,14.153420518698766
8120.0,2.8036243441591915,12.104384198468718,5.237114987967248,-1.7096981827972513,25.473172271602724,28.900532900166773
8140.0,-0.5518844050892806,10.724251293161748,-3.6856425785592792,10.945296096622531,-20.098473860885914,-10.460886982183244
8160.0,-2.753387711114426,4.0670122559922,-0.6150921130394411,-25.923059394671935,4.1970549078589,-30.905980766479598
8180.0,5.257090148852606,14.905675234609664,2.0489345458485726,30.04457753684293,14.826586030059106,5.524534902702587
8200.0,-7.415683545740627,7.652365564959995,-1.1159365572513378,-35.30850558255364,-23.218370797613336,30.245468395634504
8220.0,7.092307933139076,14.775154194798453,2.954323200425079,35.137355598290085,19.06344944192539,-2.21567252849961
8240.0,-4.321754686549632,3.701770089518053,-3.2608976831090817,-27.448208981373085,-11.294979222382356,-27.511717913533904
8260.0,1.125509847032736,12.209263486219054,-1.7147385755099778,13.532201206602084,-9.537440806286316,-4.31484970817068
8280.0,1.8616936528142063,11.468708024276484,5.2148218314336345,-6.840649060000464,25.141713876010577,29.899151492148942
8300.0,-3.7344746754639666,9.409260634408906,-2.6946365903101555,-7.708634171820146,-22.614561809417353,7.530104103202165
8320.0,3.485101041785639,10.095642223752922,-0.3759859125010327,20.105942436386687,12.762250006942077,-31.102528384460747
8340.0,-2.4650407620655654,4.639004205802754,0.8866674543915977,-31.391012918624845,11.785966496037915,-10.288358998179222
8360.0,1.6807554533734497,16.943871540107313,-0.7947319464246251,35.74535941513224,-22.54710890123425,24.85571177722167
8380.0,-1.5122819231338014,6.230126251623948,4.269561352913539,-35.75089756215134,22.878787132610885,17.625527026728193
8400.0,2.5870569427741863,11.933957720060603,-3.0718348933081634,26.857026969893138,-6.019448403571982,-23.780262528329096
8420.0,-3.8450656119703015,4.964259350053442,-1.839593851126501,-22.147708353008575,-6.793307506982011,-16.99923074592772
8440.0,3.9886627961536334,13.461725985585161,4.746051187843677,13.121933186477687,20.38451264419559,21.464127116994053
8460.0,-2.819725622105262,11.872998129641314,-1.8408793728961887,2.0989779934441097,-23.686036581958327,19.14089154687578
8480.0,-0.2694267116006473,6.298413797655147,0.5689414949153304,-15.200066409315887,12.214791941585606,-20.200133817547027
8500.0,3.842117525586889,11.658055194263113,-0.9590882363688201,26.669843201036805,4.253131514280445,-25.776156586044944
8520.0,-6.881219081905122,6.732203186034183,-1.7198282338198707,-31.399335968058068,-18.90147310278746,16.000856062558295
8540.0,7.8746112849091325,16.90423232838563,5.338231608158489,36.132440434196724,26.130047907686677,25.13095459420422
8560.0,-6.346750381574162,3.8706603113863474,-2.858310744977432,-35.11088920100563,-15.854368768665484,-13.527102787288552
8580.0,3.1317989450328874,11.436625445143214,-1.8357146070765695,24.630371867282758,-0.9558778656309073,-28.42138198180107
8600.0,0.22112667285064377,7.782628129890919,3.032771027076743,-21.055836107562655,21.451568364916135,10.030803459890803
8620.0,-2.3627600024971933,12.740984683328913,-1.5573282262610275,5.857536853411927,-25.88046127078537,32.16433660830084
8640.0,3.1971424385499003,10.854326480730276,2.306615082960784,8.549685689313888,21.704678403209414,-1.2278254372759534
8660.0,-2.7758671701569813,4.842315480653991,-1.7492585926061504,-20.11150373110579,0.35659953400306754,-31.441763501029342
8680.0,1.430442247683877,13.830550341380684,-2.5769582701133857,30.624570304500015,-20.307754778165812,-0.9915195152033084
8700.0,-1.5059543891885703,7.481597454901373,5.452276863665303,-31.881233725323742,20.928906741894718,32.44074311912072
8720.0,2.300791302187299,15.444731071858158,-2.4369552155593075,36.78043952788771,-20.982463650245187,4.185152565253749
8740.0,-3.5924790281152004,3.3096461217131936,-1.466631587841043,-29.637797707259082,2.9839564417986164,-27.88948025132665
8760.0,4.384378100347016,12.340716290596308,1.072566569469996,18.754385125289645,15.794428918770846,-11.897982007254186
8780.0,-3.867011556463552,10.977033722870486,-1.578116300252725,-9.399561330483284,-25.884653666812067,27.072596789622857
8800.0,2.1019844546366975,10.260926788568765,3.843306929239219,-1.2328626996336025,15.397092541739372,12.074231800431422
8820.0,1.5173227059466547,10.23647229243708,-2.60984616960817,19.818136420645573,-5.9499004471760495,-22.965219770224454
8840.0,-4.450388308904101,4.913316118867286,-2.4405492707345946,-24.77496591160323,-13.134718372947786,-15.06320717168265
8860.0,7.092665681785653,16.379862894836084,4.91727532335085,32.956426077997264,22.469907755908014,23.735222887887417
8880.0,-7.039964030496084,6.037404615366088,-1.774633669751687,-35.552276703566164,-22.636792711270694,20.814553064476836
8900.0,5.146315734552752,12.617618844411655,-0.33502651969148084,34.79154101475096,5.721061067301418,-20.336597261550644
8920.0,-2.0320066256755456,4.425187921827183,-0.065452369354519,-22.598170275472437,7.434868136345217,-26.77667250398279
8940.0,-0.7523232669335865,13.770054500954501,-2.1253845731193284,17.177821034234853,-23.520679389946956,19.494822459375456
8960.0,2.3180718060683065,11.669840072889908,4.803703304977459,-3.5333382728428977,22.94557841157874,22.404535433700886
8980.0,-2.3426952066139046,7.258464518696409,-2.0591770831193132,-6.466512861857895,-6.928616581181728,-14.754488371336254
9000.0,1.6622309278121923,10.649979790393981,-2.857318410289101,22.11515370136184,-10.149882470043591,-28.704727584420827
9020.0,-0.9121855259394083,6.320989948682702,3.9512930963438038,-29.9646740401202,24.66888529748898,10.696786187926524
9040.0,1.6049868038531794,16.874253818106634,-1.4363751392856607,35.99264729466833,-28.049604462694553,29.54333774821172
9060.0,-2.9794993790576543,4.360867335606897,0.8424411729627076,-34.14413153720741,10.698015714928005,-3.993009672956614
9080.0,4.9807559725876605,11.449924349143464,-1.1402759258898665,29.74617151553469,6.974131345486599,-29.64000163596443
9100.0,-5.478849234703102,6.887353754295566,-3.168720316925691,-22.25613151688419,-22.00614122712091,1.1340431576596366
9120.0,4.153660351946065,13.591088263920286,5.218515126140764,10.271556252864988,24.578980913651318,30.84377810108075
9140.0,-1.360353097399957,10.764435379539272,-1.2849552579237764,3.700477990846507,-14.167846731587286,3.826948871967379
9160.0,-2.5156977814569372,5.173024151691884,-2.6399184496572703,-15.11393657667218,-2.572082983669489,-30.32718601866312
9180.0,5.9561184897628525,12.826660234638657,2.579226296831369,21.867485065296666,22.53100691131148,-9.476544922953378
9200.0,-7.290464654309215,7.367654857124441,-1.6938764500946646,-30.664169478512452,-24.56718433704813,27.27331534379509
9220.0,6.24518734162068,15.772785719761698,3.2133424305622387,35.366661789714776,14.553562550929973,12.549552147678659
9240.0,-3.695734735325203,3.022980007330776,-1.1477013700074863,-31.43939772126234,2.6053228141048437,-29.559672603574416
9260.0,1.0498670035305173,12.033144579373847,-3.7988529087377834,26.011242172074628,-18.714516680982108,-14.796232992269275
9280.0,1.147847704925192,9.895430674644786,4.934193537518514,-13.905634631122373,25.496580000644986,26.584852221349067
9300.0,-1.939222669539495,11.553099507633766,-1.301282187034704,1.8436017259978006,-15.626321157732448,20.673341597053387
9320.0,1.4466709353992475,9.444248394555192,-1.4291822947258424,10.969687127132758,-0.7703730240740218,-21.052916481425296
9340.0,-1.047206027154293,4.877777595690717,0.6894120889548359,-22.72360179698431,18.45625180941307,-24.56293456598404
9360.0,0.8240987332601768,15.852324018536581,-2.250769313100063,32.16654435142239,-25.820706321416694,20.681024888207812
9380.0,-1.9801796126931102,7.054135011832151,4.254038236861836,-37.035859130959594,20.792629427542074,25.55315345262358
9400.0,4.126053146752788,13.514781150359507,-1.1185575263211405,31.083220129709584,-5.18209376370052,-14.343798017967355
9420.0,-5.5311136878068,3.4988366312870136,-3.6094672258208678,-30.438789549699212,-12.009957318047842,-28.6543823844126
9440.0,5.834498080868141,13.639659633527414,4.31887669895637,19.913476786086402,22.979732963398366,11.27226249105084
9460.0,-3.451386216726071,11.16668208799223,-1.141612836553136,-7.693822828910558,-17.274167358107807,31.036193275828797
9480.0,0.06385950337372935,8.542261112671099,0.042309306758628096,-4.087477572807274,3.6861835319428464,-3.7390642062830417
9500.0,3.7377230249120625,9.92600931611291,0.024778959772635917,17.872286761127686,12.695216469707518,-30.846439311879003
9520.0,-6.809797287747434,6.185135657120906,-3.2371933440195417,-26.611613678310295,-26.494949894055758,3.98377650051546
9540.0,6.615890235410364,16.895816123334402,5.20074642970601,32.37216015299183,25.981189275696963,29.892049990037545
9560.0,-5.383915775581158,5.280441971747081,-0.889830488772285,-35.01351027251058,-7.217355888543192,4.6403298376562905
9580.0,2.8127977366057877,12.183103172414587,-3.770120509730049,27.229246771908684,-10.494633589565522,-28.569843971597674
9600.0,-0.4060085916583569,6.216637436969107,2.8567643312094617,-24.46764531390894,24.387198969301007,-2.3482213001911885
9620.0,-1.077280480864873,14.356984135092937,-1.3664378222578728,14.657748370382198,-23.52655209237099,29.863550108604
9640.0,1.2040873153391611,10.732875300900469,1.9482834177561186,-2.6672727399528617,9.050840944170146,10.738585991719926
9660.0,-0.3972030433666406,5.961625942149453,-0.25364163433904335,-14.333399423061966,11.47101429324966,-25.518041965773925
9680.0,0.047537978861139724,11.773889937651186,-4.374528090977602,20.212703869020018,-21.288006112020877,-14.904418521307342
9700.0,-1.284486333678158,7.446354722217996,4.786014176211734,-30.042241997824046,22.295844329009437,27.114408379376638
9720.0,3.5223019834542924,16.149158907483766,-0.3913061129393655,31.536589634573026,-9.28679388097167,17.926917038260235
9740.0,-5.173405403596358,2.4718773697159158,-2.421553864536969,-35.17075397511154,-8.00328822514807,-23.872477221608754
9760.0,6.192328296172622,12.14768376867753,1.57125611690372,28.11713313034097,21.55963121899,-24.481851619454496
9780.0,-5.46688903722737,8.371652048880476,-1.8727270754137813,-21.96333232458658,-27.58235003530738,19.293857130369798
9800.0,2.755677162874925,12.96466046835269,3.3581839565897336,2.912344961281825,14.377026655629559,26.485345650610522
9820.0,1.6025102708489265,9.198208273482368,-0.8475312848695689,6.694890718468477,6.251314156759342,-16.395941893745633
9840.0,-4.809833411020574,5.222828076862847,-4.547290048249041,-16.18163707508349,-23.004540829842664,-24.952135253438822
9860.0,6.884434695553994,14.662445922163068,4.3821915835603455,29.407477013795592,22.6704114692405,11.44709584448432
9880.0,-6.205241434477351,7.477164413007794,-0.20146763389746897,-32.362881877200905,-15.072164218707252,30.81800324504018
9900.0,4.20660869236636,13.804467614595048,-1.0894683994348409,37.37905934300817,0.1588141548334856,-9.365985548725984
9920.0,-1.724208592932676,3.088215190724356,0.801029478152479,-29.934081701055124,18.049578406752772,-28.944971830191445
9940.0,-0.09680191550613854,13.559266231430378,-2.6807725981651367,24.69080520083933,-23.246636384675607,4.95258860498814
9960.0,0.5160302245933541,10.387672133759768,4.735998459376418,-14.59006125297022,14.998911486759848,34.57888132007863
9980.0,-0.22207520237166636,9.716444469125614,0.2300228946623409,-0.5029867301304101,0.40918622177836433,-0.7876188801518569
