timestamp,ax,ay,az,gx,gy,gz
0.0,0.1804348684247238,9.719339297246592,0.23014461037449402,-0.01496955165227128,-0.023344740761793627,-0.632903608782328
20.0,-0.5096997141172132,8.983419878205757,-4.290025495454908,12.661059377746158,-20.283052430675244,-31.38232232005683
40.0,-0.06790699848965422,5.9500855674703,3.2090971659373095,-18.759728145325603,21.885820062139334,-4.468892139012233
60.0,1.8193544481131882,16.67020124123116,-0.6131603772135465,33.11449620659658,-18.87759124984445,33.927864675517554
80.0,-4.552782554452962,5.377760146375421,0.8897174358065383,-34.2636558832982,0.3295410523920359,11.456529134219696
100.0,6.058989031460262,12.271377405199724,0.3542103115390059,33.09457454462464,16.09361596126707,-30.27908365234965
120.0,-6.339545642095528,4.504815985338956,-4.63107297203366,-30.458106224450678,-27.073140661506997,-11.342787152354658
140.0,4.696846154782371,14.552515545318528,4.382280048266916,19.288898421065802,20.192825404045546,25.684442808577614
160.0,-1.117498621378203,10.17641991298451,0.4743647682464742,-8.201648216665122,-5.034015870944322,14.560850443112479
180.0,-2.810158248067807,6.745340100976019,-3.5463188595870174,-6.2329175991711505,-13.655315053344038,-21.28127620078424
200.0,5.460450104368011,10.897985312338504,2.389149193824677,20.859164012124275,24.1024604740335,-21.975373942008204
220.0,-6.217489484517598,7.462215218626473,-1.4931218086658153,-29.045170382609655,-21.81079886020661,19.840115698124702
240.0,4.916070338717331,16.676791716130182,2.6664930311048862,34.40107691753468,5.7869270884182,24.37881535215969
260.0,-3.401578176116438,3.1518416719697777,0.41438244508321637,-35.826608755951014,11.117056210716825,-19.891066930663786
280.0,1.279732867215862,11.877887848002263,-5.168880955601781,29.396899575548627,-21.539630531377288,-25.35365024347157
300.0,-0.18847957378988572,7.718886421466934,4.100535659511413,-26.65848233490328,21.224028683180272,14.207852352048723
320.0,0.4567295393441636,13.97161207178497,0.4074926699021818,10.90707682202094,-8.487420804850853,26.05335729688392
340.0,-0.7770304423721756,9.147015308842324,-1.2788417582809049,1.0454474000485396,-5.441699011017576,-12.159904218413338
360.0,1.0854732266608986,5.331588811384905,1.2388277531680179,-16.701830108399438,25.356935759198084,-30.508485175052108
380.0,0.37913400804847414,13.842855386627825,-2.562612170497526,24.01797980942952,-23.213339640282992,6.523433709738304
400.0,-2.7460949001566473,7.431557866193673,3.6287125604390975,-29.875548569946275,10.73330903121909,29.502687783611695
420.0,5.011823842885974,14.524350727625079,0.9027385277973979,39.69964023803503,7.142774486716819,-0.9186774187579281
440.0,-6.789371361006573,2.4366134195324243,-4.920927189211026,-32.32340159856946,-22.754855383378715,-31.52463171324774
460.0,6.621725726646865,13.43353877830216,3.2581241370042036,25.332100407471625,22.07452426918035,-2.05021641137094
480.0,-3.5849107895399146,10.01002418181257,-0.0068769577523701,-15.433307817957902,-14.943676693667621,25.97958043877186
500.0,-0.09288487293566022,10.9319325395153,-0.06505391657678017,7.422823154073526,-8.073102924149042,8.443179600146951
520.0,3.510878420583434,8.514663658343833,1.1565181049433377,4.2960975919006525,21.381641388289676,-25.76646275622297
540.0,-5.672940558051545,6.374468708785798,-3.6868142925972966,-16.597281288393276,-24.180941110719882,-8.439994422864487
560.0,5.353661296627181,16.032457141093303,3.424165432858601,32.81859259497576,12.114956896261829,26.739251762706974
580.0,-4.192095911710644,6.047147043736252,1.489557871638397,-35.54323686048988,1.4673101625378433,15.881612207874536
600.0,2.0407495354602347,12.397738687070749,-4.12279201284119,35.520617004740814,-19.499107750024763,-20.754350286520243
620.0,-0.6893593717445826,4.080730292584305,2.684319751184223,-33.25320069660122,24.13032907047976,-23.998141310709585
640.0,0.8375636302781311,14.917466422596,-0.8310937759614109,21.921208339755026,-17.348773159726747,19.917289305554952
660.0,-0.845992390358587,9.630847992325206,1.4296775121553145,-11.607169006634923,2.3097386481008857,20.641029053922715
680.0,1.991916243058703,7.868346135772697,1.196780570818949,-2.7078480613655893,15.752261208328553,-17.914472926589898
700.0,-0.7617434885974356,9.816351238599959,-5.033043420417067,16.295541321938085,-25.531225255819486,-29.295021692116034
720.0,-0.9386173194048557,7.496437568581984,3.7451348822598383,-26.069664051436906,19.45913214922517,15.254787553528685
740.0,3.5069031996709272,16.60258759992889,1.579427385609709,33.171676228914656,-3.513915510091655,28.309730731284432
760.0,-5.948909974433715,3.9044424940847144,-2.690332620076313,-36.729916546822764,-18.677978440701317,-10.70993704016037
780.0,7.302614575345313,11.909939890635094,1.6009065071276276,36.119954632067,22.957084118224202,-27.946892764411245
800.0,-5.875337041738703,6.682569336062157,-2.3989525007522023,-24.25688081650917,-20.846136391966578,6.653001485798874
820.0,2.6321081743125,14.297030864676392,2.850043651053835,15.906486562991564,1.8459804326197755,27.673977289262627
840.0,1.5418546900199295,8.629641388843591,1.7864378543639903,-4.958238237840735,12.85079211022946,-4.104767204113975
860.0,-4.112376057651799,6.178180434207261,-4.950531641937875,-9.141176492066275,-25.15241454923832,-32.29892169650727
880.0,5.138077182256032,12.561770405109643,2.9213095409796233,19.868305664640893,20.685248328876487,-3.4321859301503603
900.0,-4.4604192282907125,8.085184907555513,1.408957774848646,-27.75130429604964,-11.201623679021548,32.00184363866937
920.0,2.9603893159717183,15.078268665227107,-1.4028050956551588,35.33639508418273,-13.392954798291747,7.2401095327654055
940.0,-1.340208264832288,2.365081326128849,1.2613867299716057,-34.76683216221192,24.7328028065394,-29.678965316854782
960.0,1.103180314502566,13.384959222046064,-3.769370591217925,26.857412740140106,-26.124741829365377,-8.481935009949723
980.0,-1.4126810667434846,9.121316037776916,3.1503336516152345,-22.339856356881175,7.450936200210812,27.538136825705536
1000.0,2.285515340542817,11.999402040302293,2.2399358733119805,12.318628714190526,7.955030259384971,15.338293413258315
1020.0,-2.0259029051317095,8.067164119303179,-4.887728868879874,5.156417368628079,-23.427324330640438,-27.68906488832331
1040.0,0.7218968357412863,6.041141792550922,1.7923391688796488,-21.852716578577322,26.624863923533333,-13.446408905983715
1060.0,2.0135034236644413,15.368472424431697,0.09857328856097014,25.05308627726134,-7.740410255331807,25.541606586416467
1080.0,-4.859416676080826,6.804404324195509,0.5512632458020792,-31.503403005030837,-5.491410375795832,19.91525162860576
1100.0,7.131839171658456,12.942436870050722,1.6797098682392082,35.416812076841474,21.08181011241988,-23.303840881711036
1120.0,-7.2647072412793205,3.10392118555806,-5.195858679762197,-33.872665130302615,-26.055606586501327,-20.106837481136488
1140.0,5.030415451383199,14.898115589944947,3.221120183530346,23.59409196246363,11.84642270193877,18.89583502496285
1160.0,-1.3779056250458555,9.82355374538072,2.275325067942649,-14.995465265730784,4.100597711246242,26.83810210210311
1180.0,-2.2534278559251097,9.107968935242745,-3.8374239338920475,2.7975459845970505,-25.805229493930312,-12.827258995229153
1200.0,4.215571674322454,9.067778107153405,1.6811808482397466,11.733641920598727,22.560455610215726,-28.457282725671384
1220.0,-4.529982217281287,7.604599732703294,-1.6131143185476462,-22.28962589997179,-12.614168398589582,7.270786239546695
1240.0,3.767597776145673,16.31184688440032,1.4012946635008638,32.37355923934808,-3.2609617735951364,29.333846839338026
1260.0,-1.851099081830625,4.35890622283341,2.236881211135418,-34.44188701995434,18.622723765821277,-0.5033605679721731
1280.0,1.393509143880024,12.206978342508584,-5.467645440658556,34.988270593454864,-25.371043188932997,-28.76835119988773
1300.0,-1.5406289056036444,5.507399471055657,2.6269438022637583,-29.974907969556302,16.9637909222724,-4.26192405734157
1320.0,2.754818080348042,15.170234173455775,1.8519070245439497,20.94773130935429,-1.896444931923948,31.8229885468793
1340.0,-3.0839423890256006,8.627251305209901,-2.123363830136741,-7.291045268263324,-18.516043370528383,3.603009938527482
1360.0,2.1985240769422782,6.681769424488665,1.4818849686797664,-2.2676014131460103,25.22424090822903,-28.835957676971383
1380.0,0.2525902074694075,11.75989454847417,-3.0100655710273565,20.268322076390707,-18.304793794313706,-6.919260351327406
1400.0,-3.2297555432486336,7.947881595401903,2.17078082131006,-28.333453916731894,4.6027624937002205,28.279987825882863
1420.0,5.837601254513552,15.822806898580858,2.9939524500499415,31.29708295224947,14.43064211217744,12.851360446478513
1440.0,-7.298775058015286,2.424448182518569,-5.490492549498136,-33.34981171972879,-24.795497321238262,-27.865332575257135
1460.0,6.345233346298288,12.616249948211673,1.936063723827697,32.77803546680305,17.811080054691647,-16.861775440345447
1480.0,-3.4882346654288052,8.193170898514913,0.6871540826518855,-25.753704499535633,-6.727740842507586,24.76197790657454
1500.0,0.44893664937140704,13.132703467043113,-0.8654528964987298,13.800068922525394,-14.638196747743802,24.001541273429282
1520.0,3.060414431735156,7.600244022855459,2.389714132006911,-1.6041615017695205,24.25107358299423,-17.285665373750007
1540.0,-3.9801595172408435,6.202220243637653,-4.529096764261258,-11.320454605755112,-23.96732833632681,-27.608443942772475
1560.0,3.989588158330239,14.563702884727432,2.0895802891192146,23.472264390936886,-1.1377556572500183,18.29847234903231
1580.0,-2.4939430522551267,7.714907572429131,3.6564779417804023,-29.510261387365095,13.661746046876235,20.155755747898628
1600.0,1.3393958180702528,13.472012799032155,-4.103471020697498,35.03766105954904,-25.09854194301931,-12.449470620293356
1620.0,-1.7208723471867984,2.7954264116791285,1.170350034875402,-31.846717239247955,20.82479553264696,-28.171517208782774
1640.0,2.4085717872966397,14.802586435495817,-0.45490488529952394,26.183907095866356,-7.838446575552112,12.936186927069564
1660.0,-3.2579849685180426,9.399970143363241,0.6713870948758672,-19.88723580234434,-9.30932052876783,27.70007146790662
1680.0,3.68864154286503,10.548347146353082,2.609894451490571,9.02479058322917,21.20119122452084,-5.5084664628793005
1700.0,-2.236695961802559,8.080561893042116,-5.310053204503939,8.811633477541516,-24.65922519590449,-28.618542763661605
1720.0,-1.0056552957365272,7.459296330310592,1.5753909905796657,-16.577905201576083,12.242205797036458,1.4236098631081822
1740.0,4.079215468315942,16.12901910039181,3.551395676066022,29.688054229066378,10.02588568926399,25.725853084974514
1760.0,-6.883740900216959,5.387279536605175,-3.3006058236960336,-34.258950863137244,-18.612779948328026,4.102585028174747
1780.0,7.519715515988557,12.497513147175438,1.4045664853043156,33.024178887422735,24.121425705430745,-28.387711654238082
1800.0,-5.38115728916078,4.699402247777576,-2.4269856420391926,-30.299549178065657,-11.240965202042482,-9.934530801242937
1820.0,2.5417093580653214,15.535075501140811,1.2422437849592551,23.861229639111613,-4.630766038456013,27.839705180907576
1840.0,0.9949827118627739,8.884241970940469,3.3924044982945594,-15.207120652413346,19.76517879901516,9.043158969852236
1860.0,-2.4780371759422533,7.859490529918592,-5.118759183597062,-0.5180260830770418,-24.501136242661453,-24.513012337137322
1880.0,2.862401116011493,10.56255974904168,0.8697656161203885,10.732741961499045,10.340640743488859,-12.856389613862907
1900.0,-2.5730869201563764,8.360409302815038,2.01459496134665,-26.816396833904985,5.616513482524992,25.248398352236567
1920.0,1.6775687075043786,15.932219763904465,-1.8963642449705214,31.94304881806765,-18.8104057011519,18.477443650706377
1940.0,-1.3221374452152717,2.7249202948645257,2.015965371538272,-35.53653149492688,23.963518666552048,-23.36611117817917
1960.0,2.280267308858705,12.655992720267863,-4.203878881723795,32.91864211068905,-17.746673004635547,-23.363833021768276
1980.0,-3.472597487511671,7.634693146850477,1.0141547373217843,-26.692995801668392,-1.9743719094880308,18.42008644865189
2000.0,4.38460423821945,14.205514005825068,3.9865218205518156,16.886011517148287,16.909482061576725,28.90581053527038
2020.0,-3.79480514094212,7.678811745086675,-4.463522581684714,-6.437122259503834,-22.989585169256873,-16.890158188620358
2040.0,1.8141213298559742,6.526719061687997,0.6955175379309801,-7.411982718295274,16.137163075642054,-25.855835981042894
2060.0,1.8872788895420012,13.290901698467122,0.6690011694090661,18.80118010606348,-2.828093537586132,15.549077444590315
2080.0,-5.515213148102132,8.20768384309079,-0.5034873441136432,-26.54048252934375,-15.096735988064115,31.219542828563824
2100.0,7.517040525378638,14.026584880952813,2.8970093035508455,32.364964652909514,23.86528223951338,-8.56439749232975
2120.0,-7.035236427280892,2.1300589242718906,-4.619255617637381,-34.379825943080775,-18.020765451246753,-28.701792487412916
2140.0,4.447953784740536,14.728750082970153,0.6194162169272758,35.402297636342105,4.035015752038244,4.416082365223286
2160.0,-1.2031755820656174,8.948605622492328,4.035520629452743,-22.88463062878181,15.509863794868513,30.618905253432295
2180.0,-1.5144040648131178,11.370918332520228,-3.325723876543382,9.835362082456536,-25.220774287918754,-1.5460725078189335
2200.0,2.513455594936365,7.5596729270805305,0.8066292251290579,6.599587994106244,20.12682283924908,-28.23143074901016
2220.0,-2.7554544080442205,7.1035711264822154,-0.9965516332098252,-9.940890288964052,-5.967018108491026,-7.940897677018194
2240.0,1.5222593338801667,15.875101961794742,-0.023032616953167773,23.431248045960462,-9.00796392718061,27.189775600542607
2260.0,-1.1250432502640253,6.1092144778652155,4.18407282749626,-31.2274414877094,28.05457569523854,10.303951517439351
2280.0,1.8848264951271623,12.729859865379833,-4.6067873804818165,33.50339936637596,-24.96391193491653,-26.905689904772633
2300.0,-2.956102637376739,3.8890028710036995,0.44027368535390426,-33.89554914900409,10.664105639372949,-12.851850032380458
2320.0,4.789965627866326,15.884583026497031,2.8608053038425285,26.05841952416145,11.222166066219105,23.86448256420083
2340.0,-5.2514092568824955,9.017497749406832,-2.1149802958417054,-17.837848619788407,-23.711909865080898,18.26303743179964
2360.0,3.672828592058146,8.855842681509792,1.8470001918223269,1.1134195304424024,24.64033642157666,-21.582149301875642
2380.0,-0.20620127723035497,9.341586552678548,-2.9836766322520765,7.807190762206598,-11.918039146255117,-20.02550549556497
2400.0,-3.1536346884278177,8.574921216873717,0.2533373160911016,-20.1316722558773,-5.25982564174965,19.86180440199296
2420.0,6.8241483030909365,15.865046058689034,4.401772959321387,31.26665490293248,21.720388658989602,22.01535601735025
2440.0,-7.217810418384855,3.5082922247958916,-4.412976537360217,-33.44816957549213,-26.83985228643003,-13.504049602127079
2460.0,6.208098976958946,12.660782733112207,0.1589154225268688,33.72647871623258,13.622261957102108,-24.188260017280786
2480.0,-3.6151008622419223,5.951743407640187,1.4768967549888457,-27.898969760079055,5.597466674443013,12.379411427519978
2500.0,0.242486359493062,15.688703399485409,-1.0189960678666141,21.354703325585604,-19.908864897118015,27.05912558965234
2520.0,1.231888713614755,7.6472599662802025,3.0319132390907653,-9.263796163828909,23.765314521224123,-8.300998832582344
2540.0,-2.130119783015672,6.891921166719282,-3.985031648485079,-3.7581188822211375,-11.228410873727487,-29.72471678164569
2560.0,1.56961622063056,12.421616307943912,0.18819949435201133,14.342435402368768,-4.847694718734628,5.8843412263949
2580.0,-0.7516058822436461,8.849021598668765,4.612660864226951,-23.011317257459588,19.70424744338,33.64439593791716
2600.0,1.1425211855341058,14.271188498170984,-3.4439107373137903,28.437355855895564,-29.677818857778473,1.2277017867731095
2620.0,-2.2875850084004075,1.9832423360975164,-0.10510497503944571,-35.32510284198834,21.078197158956453,-29.111473658946036
2640.0,4.02710821943754,14.280188936987734,-0.5297665839530273,34.93091383937882,2.980711292072452,-3.413799827758022
2660.0,-5.779741163247912,8.12061974889122,-0.5610297631319128,-29.598615320836025,-19.096825150820163,27.86367564023349
2680.0,4.728549476095184,12.843859965614952,4.134548973135868,15.430375185710172,26.93473158255497,10.26605928769111
2700.0,-2.968752795930681,6.918642638872964,-4.544815509963157,-4.585451560027037,-18.53028446260816,-29.09381072869357
2720.0,-0.6766638609369023,7.676326634810664,-0.34212094182545194,-7.486898800072023,1.5851060573739282,-13.268236342566857
2740.0,4.607863950208153,15.166790595721396,3.8468952687517155,21.23270621441093,16.835389717238012,29.005169097820666
2760.0,-6.41159493988902,6.939389926665571,-2.108456692510864,-31.585029356975436,-24.25552365550934,12.762891020547897
2780.0,6.699503929304119,12.835487749970117,1.2935344273948968,34.343571298580954,17.532605236670445,-26.66214772562534
2800.0,-4.912419766142398,3.187661821218396,-1.9626089831320257,-32.394529593331946,-5.130250821884816,-23.946405858627024
2820.0,2.2626957275098643,15.733044104613516,-0.5589389057658153,26.90991313781467,-12.72047066061781,20.996309598424954
2840.0,0.24868414998779664,8.565804999328735,4.979968770315086,-22.177939327880328,24.75844452309482,23.578866150187366
2860.0,-1.5207397773465279,9.86597191482458,-3.6957904197415585,10.644412792054483,-20.542723284996104,-18.07525372603868
2880.0,1.260547365497689,8.2106613109617,-0.6853680808619218,6.537275281705117,8.51135476169105,-25.235826323955017
2900.0,-0.5421144960746126,8.763549027087103,2.4938717882833203,-14.546960863867913,13.685418025657482,18.68512987615961
2920.0,0.5526446866636512,16.13804586969097,-1.5744301208297822,25.635803751148117,-25.504757345216742,26.33243207399667
2940.0,-1.5873021907517157,4.03458509867431,2.3247629935883496,-31.766720653915428,24.544273940562636,-7.803356077843582
2960.0,3.635819274892841,12.691007420166434,-2.8537250740245232,33.61039605776929,-8.854440139787592,-30.877415055634007
2980.0,-5.484216443544978,5.885309750332432,-0.8042160667494898,-34.574967488397185,-11.436371281308755,2.3223975905653136
3000.0,6.351434849779107,15.84545619529194,5.427492120784843,23.912069046441523,25.016601931177007,30.856706856897976
3020.0,-5.009421413524784,7.537011748627962,-3.1590026487042677,-18.525733443475435,-22.097381444953783,0.40668105042719804
3040.0,1.8380187243804607,7.571392332785233,-0.52061803028499,2.8053453914073874,9.131751144894313,-28.173228608199963
3060.0,2.0204508670231904,11.179435426694944,0.9700658800080142,7.391458561623019,7.981963232550041,2.0257564285417575
3080.0,-5.570173136826624,9.169240385332253,-1.0829221573998227,-20.904510128205494,-20.139492673639865,28.830426143045045
3100.0,6.7755121825057225,14.566601130764608,4.091279471051432,30.10878394770415,26.687130536842236,6.818842115730659
3120.0,-6.193486143498967,2.408288699770456,-4.022800448286318,-33.203977550540976,-9.301550420207391,-25.678595433990026
3140.0,3.7310093422781887,13.669962675117832,-1.4202117699405494,33.08810725622117,-6.584656361140503,-10.780652245443271
3160.0,-1.3272889120779061,8.124118782254769,4.775872240043664,-31.900533388295898,21.12197175847305,25.566609594042998
3180.0,-0.29894210474128713,14.15862962342507,-2.4468379108335947,24.33765296286114,-25.186780869139575,16.962591284607115
3200.0,0.7508312067171962,6.523397607011123,0.3156185884972083,-9.460987105425492,15.335208822846191,-28.00010900466242
3220.0,-0.07589165014846305,7.884056351084584,-0.6828547948909781,-6.41455750398824,3.578863994732063,-15.805778491485114
3240.0,-0.12892268845739316,13.821703682071417,-1.1933440198727217,16.31405042716448,-19.924720245482316,19.707653063321313
3260.0,-0.2967726384309497,7.551558373038115,4.969273139867294,-28.356699009806416,22.909584832648353,21.199209994895256
3280.0,2.077063327109293,12.831385357172861,-3.382458428656011,33.754005001147064,-16.19275566257364,-21.38883605747869
3300.0,-4.54270559578057,2.8539932281975973,-1.2842482471335037,-35.61357178077029,0.25060137110271596,-27.68566055328834
3320.0,6.449150487192871,15.710178411969958,3.394583408584741,30.664929284148773,18.65348154214392,16.47582759540077
3340.0,-6.087056893183844,8.71648601793956,-1.9055999899827551,-23.06530700568319,-26.666559074384324,28.618648082747917
3360.0,3.8858407820204683,10.63588205153627,1.8867890452068723,14.112245384946952,19.45795546177223,-12.418852966369924
3380.0,-0.3263985546736909,7.213682559064021,-1.9072635449777346,-4.008931951299759,-1.3652714664600323,-27.174468596700525
3400.0,-3.413432181350239,9.111480915084806,-1.6768701532634052,-10.963494399420004,-15.845574109504687,9.639875344635698
3420.0,5.693856328521004,15.76190928110414,5.637913881617299,21.29972022121053,23.25763391434352,34.16707050759361
3440.0,-6.091847576192864,5.270652852588664,-3.1932682943732775,-28.967396828562325,-20.891262044303478,-7.997149684390651
3460.0,5.0411163321150045,12.409519743119791,-1.318695851162203,37.42463115452109,0.7124406194167725,-28.629077880620073
3480.0,-3.0725928455637277,4.916460474356762,2.1462744349542016,-30.80226016182628,11.8065324545571,-3.4799053284049672
3500.0,0.7066229008084173,16.513521842551167,-1.4698027814920227,26.133474041936175,-25.680621575909953,28.036523693789924
3520.0,0.05544521957233233,7.446790542202039,3.452599456026601,-19.622495167688736,19.496788969060134,8.658119618640011
3540.0,-0.1466468327724434,7.74239990452228,-2.923137774494831,6.141722561168027,-6.301439540465734,-29.670199513419863
3560.0,-0.660860025322189,9.303107347840779,-2.215811916329896,4.460256412919131,-11.630097916444624,-11.106164293244326
3580.0,0.86113450291945,9.565961147780374,5.162968011475398,-14.449865650094,26.04914270083317,28.370386920808066
3600.0,0.44931063023185525,14.887445669184022,-2.4133001470440165,25.837338749281653,-23.36081116483667,12.750482763440274
3620.0,-3.1082264622088633,3.0465860968609952,-0.6391260356827921,-34.59639258925428,9.950594378864478,-21.943559166727358
3640.0,5.895526193461345,13.33894438304282,0.31330288216632396,36.11148241449368,8.931730934580347,-14.29586304726082
3660.0,-6.899195504402622,6.946592693789104,-1.640714951628161,-29.102111126978702,-24.43233271562196,21.91041703722504
3680.0,5.945725300577491,14.966028768213686,4.934929263077806,25.050916364127787,22.018470069090117,22.10894000448493
3700.0,-3.3297511289678536,6.3982806846469,-2.8907534405636013,-13.869498805408462,-11.340114155547356,-19.815593486432707
3720.0,-1.061110734304183,8.05239732250904,-2.551403577653349,1.6519887830743814,-7.818110903914455,-26.31347461778755
3740.0,4.142007782442534,12.896761393322926,3.7111919797026944,15.66217768975214,22.817586737946325,13.936369856467872
3760.0,-5.8810471851440065,8.612572886616885,-1.9027036213411135,-22.096579141555985,-26.280666296496342,25.504390786733627
3780.0,5.524024248134907,13.063015296312239,0.5390441138764348,30.460900876748394,13.7707866033001,-12.386742130653579
3800.0,-3.6632065382574717,2.3461586986676832,-1.339184868711286,-32.685311922280164,6.299264009488417,-27.030267548215974
3820.0,2.171992186016467,15.288064493993314,-2.5705680135751696,32.96987448677211,-19.29724386143408,10.681816639826176
3840.0,-0.6560758028793225,8.208166230774795,5.177912319154993,-27.96727001848105,26.360687330809366,28.83379086323745
3860.0,0.5388324681034262,12.37125278568231,-2.416324694789326,17.096802437990696,-14.539118130708948,-5.313732237213686
3880.0,-1.2065417977388024,6.3041107842190325,-2.705818647229288,-3.9647336690902986,-3.9457984870826577,-29.401080305881308
3900.0,1.5499523264156059,9.154535713225371,2.688860069384495,-3.880045141759553,17.909955918840872,-0.6480749731010905
3920.0,-0.6150285055598756,14.56224542628651,-1.5351684185580416,16.557545309276808,-23.707020546097993,29.33356141583676
3940.0,-1.7510836477413585,6.145254570810513,2.4092525268614633,-30.12477781462101,17.102065339761317,4.935444680745999
3960.0,4.849939495067645,12.314650745821933,-2.0256443574961693,34.78143697279501,4.010762762874873,-30.40304013705361
3980.0,-6.704280497868373,3.8464410041932102,-3.1743580510480154,-37.81945986153915,-13.275281082836894,-11.82282165134701
4000.0,7.007428911179662,16.67365502318957,5.234485220776067,33.01898512141075,25.382617016718296,27.380097459390893
4020.0,-5.219760996054877,7.4176516824253484,-1.746477712194498,-23.775032329323142,-21.917574736627852,11.290676207987106
4040.0,1.6820674767190953,9.116478982112094,-1.754130388423209,12.806542252209017,0.9834656869340144,-27.680998110924993
4060.0,2.141476957965268,8.447797118134794,1.4144652608445747,1.0154669530186955,19.943783566740976,-14.291397064519666
4080.0,-4.629575417364423,9.802382405775857,-2.2312839079320224,-11.698863920407044,-23.47755192026851,27.209882709312105
4100.0,5.06534113999647,15.053634361599219,4.509712054250847,24.608373348052098,20.026358175059023,20.293207747653582
4120.0,-4.674778483090365,3.607158254937941,-2.4858280912003563,-31.187512242081088,-0.2601716115311228,-18.57583027723233
4140.0,2.721206892673542,13.121634168784396,-3.721708323100732,37.132035757297125,-15.153422770018453,-23.202980788845387
4160.0,-1.6069104379191026,6.15990789642161,4.608874914794565,-30.156526441923123,25.649054662033365,15.568579947011417
4180.0,1.194684196230256,15.513077510009827,-1.313393910110563,24.346559590757657,-21.858516478047434,24.3828537233744
4200.0,-1.4259796511586664,6.000264261394871,-0.3240018642899183,-17.249693043243266,5.126632731489404,-14.47408407235393
4220.0,2.3776613722085993,8.103934313790857,0.13556210328638577,3.164675647200094,13.971605236295964,-29.119766251016266
4240.0,-1.8650163397232096,11.259818465216705,-2.352732564670868,4.135830669763838,-27.310366357489073,9.61490094399864
4260.0,0.463855130926597,9.377262899126096,5.080004449009722,-16.918770579642683,24.20177100678765,29.88197710292633
4280.0,2.7384901140638287,13.106528652856861,-1.5202706021152703,29.277445642775607,-8.922155855105743,-5.457516485606499
4300.0,-5.605813988012587,2.4556494135964337,-3.6396190262230688,-30.43461816055833,-10.517785165693791,-31.889889637040852
4320.0,7.127505517545771,14.734522502909453,3.738440299521605,36.71898173842769,21.807267478441076,1.002856670481569
4340.0,-6.7794713371286655,8.09947227165515,-1.5310634701777406,-33.08770941739158,-24.219222468972553,26.906462595704852
4360.0,4.238966715543313,13.278447158468415,1.7825276914278163,23.301553683520915,12.16793958163948,4.37379065539082
4380.0,-0.5266209609976422,5.38409010748945,-0.8450337825932736,-11.479784677495081,11.362074317592437,-31.104224128488895
4400.0,-3.2610676637393263,9.24302779542176,-3.7251396682701348,-0.612637224697056,-20.397319174828006,-10.56506431590158
4420.0,4.674998275552666,14.524589015553708,5.256252189923293,12.654828329365417,23.71445164654618,29.46781959599393
4440.0,-4.800789465117409,7.306445312549007,-1.0925685914285965,-23.328620476922143,-14.122890099327886,16.084487842003
4460.0,3.493874491978384,12.32540244472734,-2.5963868047410537,33.367859213765854,-6.275446386857809,-27.129392249499727
4480.0,-2.0605052629427103,3.5474388728784647,1.9892598142488318,-37.232899929125,25.012354471415698,-14.474209101694008
4500.0,1.3753762533228064,17.12896710874515,-1.6338792871016667,34.96281988067039,-22.03145634468376,28.163495188016977
4520.0,-1.504003800849172,7.3069628763696395,3.2710250882075504,-24.90909082954648,14.343734507647433,15.736616759942695
4540.0,2.560439164255948,9.938164883177029,-1.0206865964636311,18.46826237752935,5.825455200040512,-21.71083265554375
4560.0,-2.871461193115879,7.507542106070052,-4.375300067867477,-3.3155055901801456,-15.753416973098012,-21.283312148437894
4580.0,1.8673735491354522,10.400624785566917,4.66672105352712,-8.494147534856056,25.371870723193563,20.126477711751665
4600.0,0.6927789179557812,14.467819989714735,-0.7638473696476791,20.67680097487371,-14.704920368255717,26.629816116388657
4620.0,-3.9414814631503066,4.2513604481303915,-1.4200651233702546,-28.964922893410268,-1.1456569721921415,-13.822296028628307
4640.0,6.889048999691788,12.324849301639608,0.7985738133837846,35.49538211614639,17.812979418815843,-28.577558683564554
4660.0,-7.415998713622288,5.994653188244345,-2.6658774944000947,-32.36157604061144,-24.233423620542897,14.460278450622921
4680.0,6.08506562473832,16.635821017438058,4.433158848694423,33.21801433116589,16.435004605974594,26.517185211485337
4700.0,-3.051600521374584,5.994644053452386,-0.4561138552935344,-22.17307721292199,-1.0396512836799872,-8.63940627482127
4720.0,-0.5810759062418701,8.684864578629147,-4.106885212001572,10.573504568432083,-17.410189078341176,-30.058992531784185
4740.0,2.9021708626301637,10.532862597596374,3.7944006652303717,5.85700681599833,22.184429588972673,2.5934116672406162
4760.0,-4.306546165653463,10.272856368538301,-0.8254476532913685,-14.39015387101274,-19.71287554547129,30.645258148093745
4780.0,3.6810701299691226,13.582605545233282,0.6429295562922993,25.381939964678065,4.527812614490845,-0.8678168918177377
4800.0,-2.478205814772013,2.608382002733573,-0.44720758351978596,-34.08304059165063,15.487873889919772,-26.858973161865833
4820.0,1.4554714334570646,14.626529195725865,-3.7788596409091832,35.3287988594246,-22.491327760689025,-4.725901316983616
4840.0,-1.7760286731346904,7.29609952260789,4.848583471065435,-34.71447463497984,24.125059476592433,28.779638766441774
4860.0,2.4714170889259415,14.01372357276461,-0.19346579867905553,25.68163953297205,-5.69578331694115,9.871409721837253
4880.0,-3.428113345258577,5.39131849280188,-3.3521059597700185,-19.33611372111146,-10.096456569667668,-27.749335336412837
4900.0,3.216118990352438,9.210719833969057,2.5634105037079564,2.1563498576669775,20.77764444108802,-14.217390705544414
4920.0,-1.4204466306764123,13.469440451869003,-1.5970628061551595,7.008429247668056,-19.472333983746378,28.91327809340979
4940.0,-1.5605604484996762,8.110909645139662,1.9903062644649587,-21.473399834454625,5.475051603532928,15.308372749935724
4960.0,5.224222331277387,12.12881704877529,-0.24129428286776775,29.02150542782192,10.839243176501476,-22.63262489451612
4980.0,-6.911814552581811,3.0410752304326043,-4.656543626470459,-34.31759022816737,-19.179766275546505,-24.527016576528677
5000.0,7.123433720898347,16.71757317983813,4.590195545985664,34.57992931189706,21.637950527456486,21.64268420325053
5020.0,-5.357574306489917,7.252163271173523,0.3779668563656069,-26.544595765991566,-11.45576215173071,26.143091634729196
5040.0,1.887052493837883,11.335131456248916,-2.265101708383474,24.337278149961524,-9.519989646103955,-18.1940053130861
5060.0,1.3292635139593842,6.704486551447865,1.5532371333919521,-8.002241137660892,22.34400128689589,-27.092123615973566
5080.0,-3.2765760099422594,10.359696177209955,-2.3851119359770605,-4.103613742641125,-26.713875121379747,16.305988369192068
5100.0,3.7857370492855456,14.273377661181705,3.510322165998928,11.75409219987721,16.283163015008263,28.35089473999787
5120.0,-2.4428384684162774,5.32932559425859,0.24659481357924803,-27.408593957954274,1.7264089066169355,-5.348618670169293
5140.0,1.7871380015388727,12.144147579165406,-4.568188302165677,32.53775235246676,-19.79507730713628,-32.53666603644972
5160.0,-1.6782227627143316,5.220090106455696,3.465444656771133,-33.34277756831128,27.100746264467432,3.674363846786904
5180.0,2.553717963687488,16.954607614975036,-0.19203027871538744,33.20979295611355,-15.464050748125349,31.096938781819084
5200.0,-3.506288703134288,6.442673817860763,-0.35592498782491744,-25.85438690615776,-2.0903102172850376,-2.8297923063057375
5220.0,4.067790138566264,9.475386501050007,1.0009697169422225,12.057768809395595,20.22244583537056,-28.11236760223692
5240.0,-3.448282337994433,9.057875759482949,-3.8323702947760614,-2.6451748140058835,-21.90232472500277,-2.901192690872104
5260.0,0.3668218565377244,11.424533336298019,4.438233466040197,-12.66515282917556,17.35532268985401,31.00181245098596
5280.0,2.743781314013612,13.514253603791216,0.6761402375174748,23.680186902221497,0.12257439654072955,8.641111102612781
5300.0,-6.057073953560692,3.1884309073677954,-4.453262634817118,-30.146916776379413,-16.47327399679975,-28.45482463026361
5320.0,7.469113340316481,14.15826274848436,2.719801719296039,32.122017096195414,24.104674574018613,-11.655613943487813
5340.0,-6.202478513035999,7.123865536014675,-0.6921594857805458,-32.891855355381814,-22.070218313316346,24.24746107913697
5360.0,3.793681594111772,15.289312978499849,0.9179652308014146,29.863048581224238,0.4210223988125328,17.74996490927095
5380.0,-0.4784853154859241,4.558409687869294,0.7090351513758844,-20.09877416957224,16.33738187017286,-24.465300495008528
5400.0,-1.5652140338571403,9.291076120173305,-4.744064290498922,4.813828341415972,-23.452203010347866,-20.323425382215817
5420.0,3.0205340512950936,12.046203962170068,4.417572858214025,7.576532616035562,17.944114880105367,19.775611351604667
5440.0,-2.741704952629468,9.250285246873334,1.2244480881490167,-14.32974563768018,-0.4054228172152432,24.772381488818564
5460.0,1.6465067643456182,12.077303291188189,-2.9461715404613114,24.01561832702149,-16.37966396291883,-16.67786817075415
5480.0,-1.7828077926867583,3.1132265047013252,1.9236627956465353,-35.53485471691188,25.512086536522723,-23.356411712533035
5500.0,1.7626256534321685,15.94968533894461,-2.2715619533948024,34.77311627812969,-24.990188569194267,13.22533948161192
5520.0,-3.246393494761474,7.368415366455828,2.7399411185570384,-28.674723987851852,5.023227651880167,24.56997241244881
5540.0,4.860811547146315,12.474829777993282,1.3470252238249116,25.161483153647204,9.774330917792142,-12.5477098852069
5560.0,-4.4708440601877575,5.180484571998531,-5.031086338722659,-13.32600272791261,-23.377046711265333,-29.20265317694771
5580.0,2.935727819074705,10.757047167329638,3.564804099654361,1.4043730944997503,23.265438032423656,6.9138833099022925
5600.0,0.38374815206919966,13.977867075772032,0.8974772085524855,14.933524985244908,-8.809969932644602,26.303139638108824
5620.0,-4.0232691728828875,6.578842335753248,-1.562193726552509,-26.081570177831587,-11.184802331911207,-1.3889014940846387
5640.0,6.712088530336875,11.407373128822886,1.5035900210338862,33.68587883746996,22.250771921768752,-29.658217579679924
5660.0,-7.182513415988745,4.710232561639656,-3.3625783616915785,-34.3162761477928,-24.78008444375659,-4.328373323041966
5680.0,5.498581070594372,17.239859470769307,3.635195811324418,33.93657846079175,7.606999818435842,31.31200384020716
5700.0,-2.9158686226673565,6.388809251064962,1.7107339632546543,-28.780062983499292,9.942474980306645,8.702556827121981
5720.0,-0.26998156994021544,10.29164140486212,-4.9822172880117055,21.720395962338927,-24.365249747235204,-27.282667878945706
5740.0,1.9903170753351764,7.772488466251497,2.9618986526183484,-5.943978564062004,23.148299554331164,-8.987203856563319
5760.0,-2.5076232682639756,10.952587819588654,0.11014345550459313,-7.119747755583641,-14.129974589996921,27.011581204777645
5780.0,1.3786819328917703,13.681414313989002,0.18447508990923664,20.311660978174594,-7.595923308293305,18.05459903843038
5800.0,-1.1178564021772759,3.6637490037884066,0.913106403926642,-25.53123938726275,21.54915764466589,-24.95186714900133
5820.0,1.5253011248711505,12.924767724872133,-4.767469031869477,34.638033164697255,-27.402078555914922,-17.992139542848474
5840.0,-3.0140839029457456,6.70784309742735,3.9465900354034424,-35.45361274046909,13.10385258498707,26.721119506931025
5860.0,4.387097624990345,15.869207619716418,2.138741926542608,31.160023825653305,1.750688740918243,19.04130785213219
5880.0,-5.321140380635037,5.0513394972183985,-3.8595106836705466,-24.021810218751963,-14.915007807147463,-19.711217993062576
5900.0,4.870556775018032,9.85006371030119,1.5465580609830878,9.547879695270503,26.649781420043297,-23.381267510399695
5920.0,-1.793758647834923,11.3643157870707,-1.4143214239958009,0.3914385956109333,-18.417022233063022,14.121488030293087
5940.0,-1.8704660750359143,10.437831900699297,1.5082264221823196,-13.369813317571785,-0.04021822541268394,30.291195552682975
5960.0,5.0216113829798665,12.276794445463967,1.779082709826378,21.662149942813322,18.930192900500842,-13.034851016399736
5980.0,-7.005977566930684,3.5886254005968907,-5.318589584438232,-29.224417610928185,-27.35663460800619,-27.545733701949402
6000.0,6.688642759083134,15.421432350193927,2.908354166596161,40.28978065120722,20.92142245399854,8.772551368612199
6020.0,-4.344236847706621,7.677333757667373,1.7782155111839077,-32.60379356787658,1.238524047556374,24.57516096684591
6040.0,1.3881955690525047,13.703020258128184,-2.460596564329677,25.06610089858508,-18.502522180340033,-5.406751769457806
6060.0,0.7225510759936528,4.63349541274677,1.6676288706816325,-18.358566775822982,25.751853160045844,-31.267205256045475
6080.0,-1.44383385548368,10.993383390895886,-2.375652511876307,8.221462957070267,-20.446392605444093,1.568896060610132
6100.0,1.3895018877179341,13.119119960733038,2.4389736692830932,6.02949747185095,4.03743840508844,31.009320277623058
6120.0,-0.42090559958736784,7.453832988479525,2.571382889487117,-21.958751608083762,16.944520421227104,3.3288763889552504
6140.0,0.4115068255241633,11.47130279622644,-5.825323725023923,31.29438067389327,-25.944598530497714,-27.488967505091086
6160.0,-1.7329969283717732,4.450827020624333,2.405077054229247,-36.84882913064225,20.916946655050722,-7.150961465695493
6180.0,3.5215570465843387,16.774599319779576,1.424260345611031,34.41302642288595,-3.7109147380885856,26.311673959927973
6200.0,-5.621084292238977,6.314826280515832,-0.784525234078867,-32.69147328107013,-12.678026658999077,10.484769403307814
6220.0,5.828266931444404,11.146563235788962,1.9324076750710055,19.88928903679009,22.940697397683827,-27.09375171338901
6240.0,-4.127475762888869,6.555849320648052,-4.165491489722627,-12.888475111603926,-21.066892295316393,-19.133718110940265
6260.0,0.6511385936674717,11.898565415551698,2.8030432907894944,-0.48895388305995696,10.628751303916284,21.243732265417712
6280.0,3.0969718881012667,13.642988340354872,3.1931993735987296,13.532459739005006,15.684589013042372,21.694045322461445
6300.0,-5.796270477069154,4.696507168140505,-4.879767514525721,-21.068484512196704,-22.700106850813235,-24.19557342165203
6320.0,6.953366293460701,12.158760620451746,1.643548216407089,33.20878821023047,26.128509674644054,-25.544558832635982
6340.0,-5.551022945568961,6.204927648271712,-0.48938417284941726,-35.93216812379579,-9.929661183782503,19.810991866965313
6360.0,3.0799942893911463,16.71928470777086,0.3699014588798285,36.08551273658944,-9.477324314641823,28.969019772047837
6380.0,-0.8484067051290552,4.895184095551328,2.120960390693846,-26.384075174087762,22.2042263468246,-12.049546006117112
6400.0,-0.8482041400883668,9.703199417986852,-5.1874877847787895,18.18302422595133,-26.361226292772464,-30.00818636737937
6420.0,0.7763583742291585,9.821256638129249,2.3651959341190523,-5.950993298349902,14.228948851034398,10.124502171579373
6440.0,-0.4249314026247162,11.186637176851889,2.807696856114915,-6.827704477464261,4.1672101010827225,29.231232199467705
6460.0,0.20787701478748477,12.404881239551223,-3.293190201913214,19.388018468240624,-20.739999821785744,-7.372703095053721
6480.0,-0.7826221657120057,3.119387335023108,1.314185800083307,-27.402320210493826,26.188462017686177,-29.371655784623055
6500.0,2.6631136167127227,14.728148350073022,-1.8782200524212227,32.98744133131629,-17.023026717786333,0.6586697089695512
6520.0,-4.8009778592080075,7.168665209948102,1.4846862486123091,-35.30746732858016,-3.04587325505378,26.80882700220488
6540.0,6.355805007063844,14.087941381089404,2.9312754801468945,27.64819960600719,22.158626936426888,1.5171069997081106
6560.0,-5.649981321909638,4.0941063742948005,-5.615049049618205,-21.19312861091865,-19.921555136094725,-31.392857271610747
6580.0,3.0281007758866783,10.53281533227373,1.620932348087941,11.63351515496264,13.920057899673962,-7.450080605857562
6600.0,0.4629060518909386,12.417128037395615,2.287608946974109,2.004071738755828,0.8295353533085422,32.06357075282023
6620.0,-4.028558053495406,8.64369573954615,-1.724984890380973,-17.16981473228475,-18.85495094626147,11.50292166829585
6640.0,6.08776904175591,10.9474916612193,1.972115769684525,23.422022202972826,23.12912958267811,-27.462188635117823
6660.0,-5.942493307788064,3.9445879666412487,-3.6290500243019803,-33.927843139413554,-14.227721311454381,-16.077999852293598
6680.0,4.572190514683741,16.811886700159455,1.5942130853675338,34.99691271367538,4.254496334822259,22.213911124968416
6700.0,-1.928043758279679,6.452139450068297,3.882146824388672,-35.05062562478744,14.57690920623728,18.38441114221938
6720.0,0.007759826673233383,11.952016430349527,-4.827445251848726,29.76550928046884,-28.247796163459533,-20.627153828226206
6740.0,0.17868143002787995,5.640120893791622,1.270973563161563,-14.519226536173027,17.55145376625718,-20.315831317772385
6760.0,0.3760309845444595,12.027752840834568,1.110836553141035,5.291141140329376,-1.0947131593122403,20.00771106400477
6780.0,-0.6378616628003826,12.753746102255741,-0.2102647411390333,8.050191635448845,-14.657497540643394,27.211583195521015
6800.0,0.3540980726316062,5.961711021107823,2.5177905711444786,-21.688042238012535,23.93076916141474,-16.879952137267267
6820.0,1.4269118269417937,11.7673570134328,-4.471754120117831,28.14471827503431,-18.03912751410825,-26.012443258696745
6840.0,-3.6809792065685323,5.803248940202764,1.2972386283310784,-31.495201660696882,6.926564181842858,9.036860469512073
6860.0,5.662319583955197,16.928919544059916,3.7383633986461797,32.7990737321059,11.038130062073929,26.26042676951715
6880.0,-6.732925073441891,5.03458885001329,-4.106015627601282,-29.372335940632112,-27.638511088866405,-6.851210591078474
6900.0,5.689637012175911,10.714764880481969,1.1272584868687139,21.0108149981954,18.81350779266904,-29.30346244542221
6920.0,-2.1206307561111677,8.865864839046846,-0.863389370259047,-10.965458111513929,-9.333658585174751,3.4433478430807742
6940.0,-1.5040055002597543,12.00914076026726,0.6937883188977465,-4.1096005092756585,-12.083785808747775,28.541469564204373
6960.0,4.693545250914268,12.648203413831315,3.438613153833941,15.950691343308126,22.515653080232386,-0.6072879107665876
6980.0,-6.30917715837208,3.8870803862610623,-5.200134451895386,-23.295423898782794,-22.859449253855498,-30.28742173256215
7000.0,5.329554122539741,14.178693404744703,1.159148785423346,33.144703148632814,9.497445118787637,-9.575102919924918
7020.0,-3.7111742084559607,7.246969481196543,3.2495401739926066,-36.14772519904268,4.542733359623391,28.853822741857336
7040.0,1.343185232792378,15.497198579825687,-2.5398217384178925,33.86367878910356,-22.819410118892662,7.500185208470758
7060.0,-0.39252059799400135,3.890315673436852,1.6828563136014263,-25.811584153529743,21.61091358427873,-30.68394364937297
7080.0,0.5083371350107034,10.880192330994964,-2.547275148624,12.400946463230403,-14.057715299577753,-12.231880052969332
7100.0,-1.4145868519350189,11.567250573714945,0.8814869592332579,-4.386737605098773,-4.686171572255534,26.310047708435256
7120.0,1.356554400051169,10.03570513093606,4.093935701069288,-7.792367882372485,20.53879967590902,17.957028306344245
7140.0,-0.2250091890978567,10.834721491319536,-4.865130729504643,22.83713151938039,-22.201328270504035,-22.525551732576663
7160.0,-1.9202806367462146,3.685577911661487,0.4274852931938409,-29.361759273756103,13.08451912009143,-20.997831429176568
7180.0,5.002653634820425,16.738525199348494,1.7342095476385706,36.2130039896819,3.406366022782662,20.825459442381437
7200.0,-6.659468196914511,6.934209614929644,-1.3500034941235632,-34.801600399007704,-17.772047361787788,25.975372391984973
7220.0,6.409592967401374,12.349759835355467,2.5299366630781748,28.00447750224682,24.137197148321125,-19.18844234089919
7240.0,-4.7477565016495475,4.863554004702417,-3.9240242674540915,-22.939813156883865,-14.879587689502971,-23.501469010488172
7260.0,0.9102219217852737,12.098029514323065,0.20995304151375288,12.594641602661763,-1.3835724083256458,11.719736203675737
7280.0,2.5653829890853452,12.398591888466049,4.398549503623109,4.13268231906899,19.98942127827308,28.633577483073612
7300.0,-5.049095749588501,7.075722961858416,-4.298938525940058,-16.408286203567226,-26.150207524208568,-8.908764887330001
7320.0,5.72574213858159,11.014892601529658,0.6118616273090971,27.02501150701068,19.118992713270202,-30.943177234033193
7340.0,-4.3610018620899,5.789517042625428,0.14103475802770143,-30.84717740907648,0.273157306562659,3.9213652455610943
7360.0,2.4416688570549883,17.472138237418,-0.4523984977172336,30.863418126147472,-15.48786517376568,32.153478952840146
7380.0,-1.3544733925722585,5.280454256158723,3.7443299853287204,-33.65780336886596,26.447431840586454,-3.0516336415866587
7400.0,0.8192179847178905,11.062734447701763,-4.5537687931010575,24.470352488141582,-20.91417457748253,-30.628104163747597
7420.0,-1.0930591019801,7.626104848762493,0.42080459033861284,-12.172472128524143,2.537591206347365,-2.9960959332580748
7440.0,2.1854923342985635,12.387649767562294,4.2677826239952505,6.073599254935952,14.623522135112127,30.488434428825016
7460.0,-1.5499447057989215,11.999860179309316,-2.4994908361548522,11.807518635571583,-23.63757372436798,11.001036612169704
7480.0,-0.35910895218706856,4.387543319662696,0.9379310426870886,-18.79663749828808,18.255813028566926,-26.021091448030376
7500.0,3.261525933181194,13.092991584357838,-1.83803193081718,32.26649715095399,-3.372120687359042,-13.06150644033198
7520.0,-5.988084105318414,7.606649958377053,-0.06025785695527033,-32.89621719170838,-12.06904935604287,26.784423607835464
7540.0,7.287619565985137,16.186591620400094,4.6801576415254385,36.22007335186642,24.790516383585285,15.96526045764256
7560.0,-6.230251899700231,3.7956873820034933,-4.789061322459141,-30.209215346177622,-21.156832774987237,-24.144003434904157
7580.0,3.195816124875594,11.014681421049294,-0.14275550410662172,17.788049800392077,6.621484734069503,-22.53991173661913
7600.0,0.33061247255817533,10.367557976135318,2.734787672970523,-8.538170238076127,8.865654003841081,24.942911673333363
7620.0,-3.247310089241597,11.021737802738793,-1.6366427126392216,-2.928821792841821,-22.95278103272538,21.765737811372272
7640.0,5.233482805079265,11.198181276069388,1.8993585874883114,16.804907280487175,20.466307601218013,-15.865738197148657
7660.0,-4.953372422888572,4.233075313659942,-3.011629298297631,-28.877137153140076,-10.770374678739037,-24.04574774169748
7680.0,3.142724448984316,15.734860707343843,-0.349633411387542,37.01764565779735,-11.010929735700753,13.04020281948535
7700.0,-1.6393140165679678,7.435693230065008,4.7294655353388215,-34.75925488104818,22.04407524744283,28.00625340271081
7720.0,1.5683724978546003,13.650353215911082,-3.8692270037714787,33.09165445956691,-25.925893069278292,-8.504529477466996
7740.0,-2.066797057094048,3.6614369300319636,-0.0615039276913297,-21.35531508722316,10.602577355477504,-29.28797496573276
7760.0,2.623498319966891,11.826240709485365,1.3904620648402575,9.476981404059147,12.870331630515993,8.078884826384694
7780.0,-2.74695364502114,12.004976079470579,-0.719752217513811,-1.1911949009230565,-22.444225599004614,30.350046065006392
7800.0,1.4651405811600202,8.088891271295418,3.6237667952840944,-8.011001281595089,22.637216474878105,-2.283855001724648
7820.0,0.783856962871661,10.603915259354949,-3.9350991289304784,22.83923585145568,-11.246148266469994,-29.363578853422375
7840.0,-4.414101450811421,4.986285673771969,-1.140935834830497,-32.47017324542487,-2.406537955876046,-6.502084104355448
7860.0,6.656675445324094,17.2513509957075,5.0676643434805255,34.174775833782846,17.926264187268664,29.88833579931944
7880.0,-7.2699208835652325,6.141527665726291,-3.0105395433450046,-31.755425292040584,-25.201173382244693,7.577625319533596
7900.0,5.646351934382588,11.546570073878645,0.2170703035676424,28.35583662483614,16.78746998381839,-28.201209219210483
7920.0,-2.3043359845098106,6.137640481575052,-0.7025362950492715,-16.566663266605197,3.413605589256809,-11.701257054707375
7940.0,-1.3769451408905327,13.205584498134462,-0.703028325014024,7.1888698374919136,-20.256870365808336,26.850271663857857
7960.0,4.051577714401697,12.319283955887263,4.67756845609362,4.054550921494049,24.349494983413546,14.427039913533289
7980.0,-4.269448642252604,5.050650012634698,-4.491496178824093,-20.087678455738708,-16.711617170920906,-26.816041886586596
8000.0,3.519602451603725,12.318894771669237,-0.8745387372895211,27.463788956326056,-2.69844777574339,-19.21592913676123
8020.0,-2.357296789479008,6.735759650521975,4.142913148164039,-31.41276460419569,15.850364229675831,23.089233395852563
8040.0,1.1545818744365919,16.78918208438991,-2.3845848734125004,38.404773806094674,-26.18563991519723,22.295587255799063
8060.0,-1.6933441534355864,3.8509686646852606,1.2017993690652604,-31.233545601997502,18.980894299897024,-18.756151962166964
8080.0,2.666420366808729,10.803650835403541,-1.877518284335369,23.43038870791587,-3.9819443155596845,-24.15140498240079
8100.0,-3.5360338455300777,9.144006549057725,-1.0668910211033529,-6.769988235313702,-12.559568204857342,11.934680118634558
8120.0,3.0949253421794776,12.04777232204689,5.320409125674479,0.4078419059743474,27.681885604749862,24.78928902927723
8140.0,-1.0232855795318871,10.532164057585867,-3.8191554028866017,9.576641842188746,-21.29681123963147,-11.006787378617005
8160.0,-2.558705089181045,3.623171940173525,-1.0860027949097588,-24.1857067457109,4.807263739981761,-29.684064092772623
8180.0,5.830294579884451,15.06423211025998,2.1515808209850253,29.557873773244438,13.344268262386764,5.268816463668498
8200.0,-7.612340473858675,7.236164258693664,-1.4343558934479341,-37.17368932617934,-27.219793633932355,28.66092641752491
8220.0,7.437373547150937,14.194701621097085,2.795570055193682,33.69769000980985,22.749252090447143,-1.0350415912958002
8240.0,-4.09248220809301,3.5010774102748368,-3.193614712804416,-26.170799690098214,-10.1639774434344,-28.21925219927641
8260.0,0.6703878680004128,11.75476072227688,-1.6620661086777049,17.4532412680311,-9.418178036098032,-0.4724801456103962
8280.0,2.00901782615348,11.468203102718878,5.30862723063865,-9.221965192831757,22.15848070858042,28.81340837517581
8300.0,-4.062854971420473,8.95657913038351,-2.744056172548351,-3.268220095406157,-21.177671097229034,4.699205643910857
8320.0,3.3538116714635313,10.342380208090567,-0.5262796394265739,17.424300874048193,11.277314678304323,-25.00831329851774
8340.0,-2.5355444549886377,4.750447214601074,0.7756461145641114,-26.327749233456764,9.097704370177437,-9.25957211513781
8360.0,1.4999266946793348,16.86934910733793,-1.271686957399717,30.811901332009427,-23.62322144824145,27.74585215454789
8380.0,-1.7288052404367238,6.0442935721246975,4.354446149975606,-34.64746426677694,26.59500148965709,15.438455501069043
8400.0,2.3424037655251575,12.243096875861667,-3.4266606705344964,31.044021560466856,-12.190518354769463,-24.54912077873491
8420.0,-3.9482901317407255,5.1747119911419395,-2.030661960538426,-21.341508509856073,-8.000760708225414,-16.795712202811675
8440.0,3.9123218714667134,13.20327237001702,4.985535717959323,11.026164849455943,21.755410533855756,25.109681103027153
8460.0,-2.8452491736381527,11.771375171096347,-2.207187116550233,0.5681398186048457,-22.983539660943492,23.234633379985567
8480.0,-0.06710470000206038,6.30625487231607,0.8438516025838839,-13.026428917957636,12.670742376526114,-20.513377605335435
8500.0,3.9359420752763286,11.376452458434109,-0.8588337451013299,26.908238011782213,5.271522251127777,-23.58350696563602
8520.0,-6.414855931916243,6.791944637313064,-1.4923905296751752,-35.23296853809844,-20.38887752104691,16.709119900884428
8540.0,7.2970972570708295,16.97510474714414,5.156613821773026,35.047005665552874,24.146489528709637,28.68362282731488
8560.0,-6.169654725762034,3.7228372596005075,-2.8260973794422086,-29.212648103647062,-13.160291926989721,-13.891108608630809
8580.0,3.300878787614198,11.310054550420125,-2.294534336785205,25.617051901344578,-3.4997653209338235,-28.333035519309405
8600.0,0.147035243010159,8.31521462088012,3.37466744608241,-12.684875813731752,16.795311389234765,15.59233702244055
8620.0,-2.153322929665955,13.119988716420949,-1.2131699277298564,4.419969394323792,-21.324758464884177,30.180203150577064
8640.0,2.787589503544358,11.130887714101537,2.0664388652043084,6.568591515443493,18.66502464281195,-5.117660974554887
8660.0,-2.3875783615158395,4.252565470640904,-1.9069608871023882,-19.966948599642432,1.2053340598806601,-31.434916101257514
8680.0,1.7944217545973447,14.08202087803472,-2.4035748954952147,32.19670567302383,-16.243069177066033,5.238394757328633
8700.0,-1.5247498797270007,7.261401647873963,5.492583984555083,-31.024503120430893,24.001302463626857,30.931079098694504
8720.0,2.09223236316598,14.830633869492603,-2.209668995172659,38.03217768367645,-20.941194437832518,6.072857194471285
8740.0,-4.002713854500469,3.069132290927586,-1.8184076341118502,-28.626963288497993,2.8552004767441836,-31.538270084455277
8760.0,4.521529504511361,12.035659789754888,1.754256542257803,21.635707748040783,13.786125762799323,-10.431841904643246
8780.0,-4.24479112074166,10.587537531992465,-1.3991634563822557,-9.214169556218579,-25.826896189510215,30.26950501802567
8800.0,1.9817320340831197,10.841115921668802,3.8570143778155557,-0.6061151307170518,18.13210953942232,16.11022072171233
8820.0,1.4232350379775345,9.464184418606544,-2.4878047337660423,15.643537030230636,-4.092941527533286,-28.77560382127291
8840.0,-5.00952680944201,4.415925666775352,-3.0878565537422342,-26.112855650853962,-17.063582348146568,-16.957824346080717
8860.0,7.284776238737531,16.422200425735365,5.211394900843372,31.269103659814498,27.74353603851374,22.749317753103767
8880.0,-6.737927922498376,6.133742623178378,-1.9811511740156043,-35.501226478837864,-20.269882644532835,21.950010970705634
8900.0,5.373248758068114,12.913018688217107,-0.4621096686655307,35.52892650266995,3.801983792434625,-17.641717487558317
8920.0,-1.9195235936845916,4.5015489164161995,-0.15196564440926258,-24.656665965221414,13.92774049363505,-19.981756188214863
8940.0,-1.1046305935479148,13.09853850765274,-2.4398344849998628,18.30391735228011,-22.63701784446274,20.861886304342068
8960.0,2.2711135531076545,11.479187649657263,4.397178560101813,-7.916846554122898,23.16803169801555,28.29305804516842
8980.0,-2.3299291453295408,7.059670540832022,-2.3971754647349384,-13.063224533306817,-12.673378525117514,-14.120581487652407
9000.0,1.6173861067222102,10.729840112274882,-3.054433570933584,20.920324221201973,-8.375989646524397,-26.25949793118734
9020.0,-1.2101447527499676,6.4679244779290075,4.102862202761362,-27.326726227896838,21.745019958835755,9.437454334081135
9040.0,1.5702168790552173,17.14631021342528,-1.816136093878524,35.700905355345604,-22.66396977995548,28.587790818185095
9060.0,-2.9038360328727233,4.525427176017349,1.1035807635872872,-34.1977902935027,10.761087773386425,-1.300196880810165
9080.0,4.838228521097931,11.550143350851771,-0.8364083876709819,30.900976735767635,9.750272075970912,-29.10970230594433
9100.0,-5.122526364127103,6.9108557687352,-3.1191106091587035,-20.88519334690442,-20.436895515824162,0.2527759653925601
9120.0,3.697393048484454,13.760723647060521,5.558073754273263,12.144726355500765,25.34469533356555,32.02636866289525
9140.0,-0.9698799720998244,10.504227105973037,-2.045284240297545,4.929871404132392,-12.65281029803438,-0.5126233947239984
9160.0,-2.775038042821956,5.107629857563152,-2.631757516258447,-16.710837433786153,-6.830956152500877,-31.202476579590726
9180.0,5.763273411101642,12.747468435603036,2.1650908792251604,23.373942614621512,18.613598393464557,-7.0540948056513235
9200.0,-7.149918953528724,7.127513065185163,-1.6510322355310412,-36.617646485495015,-26.51894526505017,27.655653060717803
9220.0,6.599355828439763,15.644189539714553,2.841788462944467,34.53797166834001,18.444634862611487,12.382430292863855
9240.0,-4.108122931364387,3.2129965357684944,-1.3655640904735373,-33.16499443558001,4.502597155115064,-31.992251827069996
9260.0,0.9775655940033329,11.968659803610391,-3.4772800370635473,28.217474597601445,-13.992720042799192,-14.355362675609355
9280.0,0.8856321715435191,9.53930658734191,5.0883999727355915,-15.844857872072321,19.941449656769485,24.128264352811804
9300.0,-1.853994162955481,11.779222873239323,-1.2753900536748843,0.4105382661934631,-17.78108633153282,19.179968017857043
9320.0,1.053011570092611,9.281533980624063,-1.77303373347356,9.296098008289912,-1.4817388936259097,-18.887771822413715
9340.0,-0.7833631185054897,4.827296924934244,0.9278171631465749,-21.99643010676514,16.10999209735261,-22.848227921091645
9360.0,0.8650666218604506,15.752969979948805,-2.083282966508914,29.710385354614477,-26.343614941254707,18.560287637116947
9380.0,-1.8889949338667567,6.924649355067608,4.139320719536718,-31.45961253152891,18.04861274592752,21.55718165918231
9400.0,4.172552513990267,13.563367812946893,-1.315074370817947,32.92419721146212,-2.629888856081369,-16.73246811741468
9420.0,-5.429630788886379,2.9805398714976135,-4.145591493745147,-31.758451783285036,-19.21933242360671,-30.228415535481993
9440.0,5.55228517940944,13.583655749658405,3.9496241861949017,20.20814859963978,25.326379008475925,8.442916558409623
9460.0,-3.7634439566613676,10.860366531762685,-0.784878659049769,-6.629663074043323,-17.818238763381657,28.208747964740216
9480.0,-0.2450246045156713,8.546507863474432,0.4244809886964459,-6.742747821780338,-0.09578093744654659,-5.347300251816223
9500.0,3.492227932011377,9.5127684742728,0.06370129514132405,16.544735772916393,14.354388606970042,-28.85469883677635
9520.0,-6.509105781115531,6.181110224879555,-3.110848179937068,-26.45205519952485,-22.509162802924532,1.2518600339625916
9540.0,6.877172897962182,17.03084402698988,4.980708807368559,33.08374147207707,23.242465251664992,32.99056026242695
9560.0,-5.554345740665846,5.155351724541589,-0.9337150820846845,-32.902427618194935,-11.324512333296738,3.1273697704857506
9580.0,2.603698817474085,11.618919996983795,-3.48211456264394,32.887304736067456,-13.038440896289778,-32.79894534544923
9600.0,-0.11990003117593442,6.095521232928133,3.05719578641244,-23.365256727776494,22.642250593058733,-4.334990588990617
9620.0,-1.1409736928076835,14.209522219424594,-1.4796952833240695,10.76376637854047,-22.746847235043326,25.141964476533236
9640.0,0.9471919089072571,10.940566002722965,1.957658285514982,-2.807196722230629,13.18435468493258,9.942488922656713
9660.0,-0.3080893679433971,5.749281979640225,-0.6076244093505044,-7.325349055987128,12.68593311536844,-26.616420159609856
9680.0,0.544113769619152,11.724981001933452,-3.8655029750971535,22.57895763093715,-22.65777209332539,-17.241322218495764
9700.0,-1.3065809867716482,7.613434279666229,4.983248019566663,-31.386712560492388,23.472296790886357,23.78042990650939
9720.0,3.2415839291563433,16.205725939702532,-0.42558660306574525,37.23683211595113,-11.347145821399375,16.176871396763843
9740.0,-5.1331287082620705,2.890132295260689,-2.6308179052608853,-35.35482712687798,-5.344950815617315,-23.369456152039252
9760.0,6.355128891753724,12.33732838396662,1.5177421023420896,31.144478074269628,23.654142714109184,-20.639652383410706
9780.0,-4.9040265059575106,8.383379636146792,-2.180763815460978,-19.414142645412376,-24.2783220598783,23.48239503916085
9800.0,2.6952494846681128,12.694497187294465,3.7428623350312735,5.2704906217950676,14.358180342349229,23.313945359450038
9820.0,1.3508239903484176,9.37445113207894,-0.5427163171344916,8.823658806732647,4.5025588654703625,-22.47046926753221
9840.0,-4.820021273505436,5.2161158624514705,-4.28832687343171,-17.020921395221343,-19.57470348646058,-28.495196777323205
9860.0,6.241053547055491,14.878305523200842,3.965683902092779,27.78494085565114,23.715212954866377,11.32384384474801
9880.0,-5.932184545275079,7.503609663846722,-0.4393139536810925,-33.84572206935724,-16.34471492032631,27.60808762389825
9900.0,4.218553755281518,13.944195468082578,-0.9454065885276582,31.34522211668102,-0.12759294057669734,-10.722319158235285
9920.0,-2.0451988724577226,2.814675087416388,0.48805034796898417,-33.86590908222861,20.39592216605063,-30.771009681729527
9940.0,0.16000131136640897,13.481741493267457,-3.3319726990497056,23.76450825679119,-25.730993235050928,6.55342895497574
9960.0,0.2439239175099877,10.532302404501566,5.080131303983258,-12.827790061337941,19.140282198198893,26.600339050084116
9980.0,-0.3350988536265676,9.930849576681167,0.011644210340351527,0.3581849914419888,-1.352134857563479,0.4044847285890569
