timestamp,ax,ay,az,gx,gy,gz
0.0,-0.16137070742501813,9.928842258446045,-0.22374066585899463,0.3163938820031071,-1.8745130312617617,0.49359433742898
20.0,-0.48167708498195944,9.17714367805832,-4.4111910779076435,12.77302959342414,-18.208120026314756,-29.082368555813368
40.0,-0.19158058278030574,6.0028567855426855,3.4275511708931745,-25.989765620194813,26.63197812874072,-4.493674554720156
60.0,2.1957366003168026,16.64767668934046,-0.6109736727283993,29.237615522681853,-17.3919182513033,26.784474371475202
80.0,-4.467384255007742,5.782912881044381,0.7204707333709206,-34.10396261260313,5.651492819730403,6.410111361330191
100.0,6.110489006981939,11.805018382152099,0.6773957589252162,28.894945179333348,13.269259743177757,-26.94132393825416
120.0,-7.206930837040027,4.800376772093255,-4.480470667543027,-25.89880650872297,-25.97812573456603,-12.584090335685845
140.0,4.497441250054644,14.457179770783284,4.15695085394874,15.205047810756586,20.73424696803763,24.372317313054328
160.0,-1.5699907725684883,10.475164374758295,0.4495001867679605,-7.485718243574244,-4.071977360477122,17.82212628627791
180.0,-2.378791504752445,6.729040842518232,-3.3836418184999957,-5.6299443899982915,-12.54033325510449,-21.66386293163179
200.0,5.147982420141453,10.457820427383977,2.1498979801558704,17.348525836200054,23.6510519801047,-18.351489403215353
220.0,-6.430805684115087,7.490607890733326,-1.6111235739946763,-30.515017496522777,-22.79711929768572,19.163511919980348
240.0,5.193675641529452,16.55865295062785,2.5039585719684427,32.0914249313467,5.077700932787986,21.5368204547413
260.0,-2.7252935976174593,3.3961052418009308,0.39305351794184756,-35.05028015613628,12.526334039801235,-16.91783392668372
280.0,1.1720538498616255,12.220566770188606,-5.232002152755306,29.560157118273473,-19.645171569576245,-26.792267065750963
300.0,-0.06372118391200726,7.840042100638208,4.338653706208379,-21.28729959619683,23.226072086217272,13.395274492937366
320.0,0.04994615742041131,13.731118818447838,0.8002954269153536,13.793362763925089,-11.013380222314222,28.393373658294642
340.0,-1.263131657565085,9.214824573118085,-2.067595154348723,-0.8763243743999403,-7.883493787953998,-8.606294648897181
360.0,1.2167425955036324,5.445102766767721,1.0434365690242304,-16.639091280119025,25.822730336235303,-31.502998499637204
380.0,0.019988862471805702,13.745689273247997,-3.2407391681240947,24.405670472136787,-26.35553485327726,2.4535714043040566
400.0,-2.7460038101231974,7.83387385891482,3.404460593332373,-30.106229183324068,12.394840620848079,30.584508987052118
420.0,5.5381411753878345,14.673040475172758,0.9892033215588704,36.24032077945221,7.560260855819276,-1.550989733067015
440.0,-6.552997504564041,2.7887631805885817,-4.825586441044618,-34.50397797564189,-20.169761311329783,-27.622381327869412
460.0,6.479528996935112,13.578833795789539,3.3229158338024636,25.233933239739567,24.3429476577854,-0.8545157382806321
480.0,-3.846866361808624,9.655493374359006,0.1474668813945344,-17.949015190212833,-12.392378510055988,29.176236613031726
500.0,0.16816118026216723,10.959682314825955,-0.2425711857158507,6.568528776201977,-4.802919548901734,7.710265011926386
520.0,3.3889852844375237,8.618355645335516,1.1509052510806785,5.327663083035034,22.548424736223676,-26.795246569776737
540.0,-5.652424478925252,6.000081241126911,-3.8089623216025834,-16.578629000869554,-22.308372653495315,-9.040522428265866
560.0,5.518704707844027,16.13242923936948,3.501502047255737,30.061490534666056,11.823400651716458,23.088016883446564
580.0,-4.350209629160379,6.434980141683939,1.2365284787041333,-30.65716681708647,5.251590814030434,13.577103981518936
600.0,2.4617271873709408,12.813021172491219,-3.994548642233723,34.8814243766077,-17.792640442187864,-23.544740559799518
620.0,-0.8131279406481734,4.053204553804894,2.0838698735144128,-28.381828339586903,25.042734795003486,-16.83961687858668
640.0,0.5243068253027636,14.740062004473543,-0.7378275927663376,22.639063497419738,-17.513050530194988,22.42571265307319
660.0,-1.5086243117213989,9.88011667628131,1.2516895572043993,-10.439434214476083,-0.13807303277200897,21.121641792757448
680.0,1.7075527003448927,7.768268697899613,1.3557430162213149,0.2332868049928547,18.152866013469254,-18.380382434102415
700.0,-0.7267960119681955,9.858355511370265,-5.102527039710768,12.513343451275189,-26.058963884385044,-24.458910274060404
720.0,-0.9542527646441205,7.51055293491801,4.139480901294462,-25.921572442986786,18.921317849508576,18.97035762202563
740.0,4.031802471007483,17.128413191682306,1.5006500333484063,30.05385221260072,-3.190388899404198,30.207194977070017
760.0,-6.458784331777486,3.617530545226264,-2.961280705864414,-38.512129821035025,-14.843561730817658,-8.63638866559534
780.0,7.471522147020769,12.090073463036408,1.346218647574713,33.06394414660823,23.265596488203993,-31.32491147872393
800.0,-5.724173957950887,6.501288366886904,-2.083019293087425,-25.697562785883854,-23.349890260850263,8.036307209706713
820.0,2.553874405863073,15.031510640604498,2.528901453281156,16.53762597291114,4.205291656755728,27.53323678914995
840.0,1.5411138157406459,9.331937568520903,1.4859125638489152,-1.4523077909999418,14.04597588444201,-3.482679306456891
860.0,-4.20134137926396,6.070277309600503,-5.724767108740989,-6.607167679036255,-27.823954739288705,-30.34157346306197
880.0,5.25170095619541,12.471843284289974,3.255992727413445,21.9992971108713,22.251661599726525,-1.3855826328575558
900.0,-4.662857598054438,7.91857693632185,0.8681782217326961,-33.96244797324117,-4.47841900468406,30.051418309322955
920.0,2.9430849855418173,15.236599846322285,-1.088227532482201,35.386520880661365,-11.225647394391922,2.988787353422517
940.0,-1.8454648824792435,2.6294429643771573,1.3265037379944484,-31.683154017987043,22.831260976523573,-29.169130818533954
960.0,1.3497699144746262,12.852397264706912,-3.770936186664456,31.098432874096652,-22.595962404408684,-6.0383444632842505
980.0,-1.6486096631880738,9.14695273685856,3.1260373174052636,-23.824294149957737,12.017164323765993,28.865776206243325
1000.0,2.3833008341097557,11.909095262535962,2.3675929130042026,10.281121167010028,10.097409130360562,16.044157333140138
1020.0,-2.2872836804504657,8.272320904104895,-5.2605528153605885,1.0244179820179884,-25.243488507629696,-25.241282314633615
1040.0,0.6877010977699588,6.4371450261057515,1.9664912980259683,-12.044733826574069,23.22326754025795,-17.91100808326087
1060.0,1.9215451980849225,15.690575158185949,-0.2618645560889522,27.26918205676195,-11.688982995563943,25.077601707217646
1080.0,-5.260224336083427,6.887476805339639,0.3560187591068816,-34.906291952247585,-6.869763014006205,24.757537962116796
1100.0,7.217728960595395,13.333615064123489,1.4825942637469114,34.372876800649955,19.749739926700308,-17.926774656733492
1120.0,-7.305378552696772,3.2480447234654055,-4.9237099074953665,-31.11390551482186,-26.152722869309713,-22.536986298735073
1140.0,4.96942391345495,14.953620202815628,2.775129555482994,24.943194841225136,13.72601800603384,15.051818391120172
1160.0,-0.9859473890584625,10.022449091404143,2.477787721447668,-15.326489663484926,5.400132601147079,22.76087009191564
1180.0,-1.8736094775810321,8.95431221414467,-3.7255460788841233,0.48424049161856475,-18.63487618744612,-16.964484960000085
1200.0,4.167229639055307,8.654548747091637,1.3902478279787942,8.027353043303687,22.833473371769497,-26.778707452599306
1220.0,-4.797931209098296,7.6708660388149505,-1.5522905871655326,-22.487792778794685,-12.860548038392832,7.827733791582382
1240.0,3.478664087674532,16.569651781408457,1.692324431309303,33.00792509745307,-2.063861761624133,31.465761779612233
1260.0,-2.334067048181171,4.6552078845329055,2.5431047561624442,-31.427291419908162,22.352447118587662,-6.35924689712281
1280.0,1.429855524185457,12.360007240524386,-5.607094023380114,40.458070295893904,-24.726081396794495,-32.10657620537734
1300.0,-1.7951262455577761,5.757182648996345,2.329934223604739,-30.218540825001828,13.616777969332109,-0.6225486493872892
1320.0,2.935136258991573,15.157554564264597,1.8502687468502235,23.56694172530659,-4.110647803602831,30.938017648770327
1340.0,-3.1259188047313233,9.011354216104454,-2.2020951174752588,-9.867761840266025,-15.017255470710262,4.5441081861043635
1360.0,2.2735940480019474,6.704905099662474,1.5602062300474155,-6.4717037130606165,21.856314337901182,-29.184874827513223
1380.0,-0.26519386407141954,11.418783157207427,-3.7069765578832703,17.864410425112936,-19.754541201078556,-5.558502471382271
1400.0,-3.174485752098775,8.439434914913962,2.3412792943202376,-26.627239454045622,1.0297147307744283,28.95727796799195
1420.0,5.8077163225411415,15.640025362434631,2.647503322955738,34.868318130824775,16.27042833494768,14.544083503945497
1440.0,-7.235179653587088,2.6931524524746457,-5.0168828315737555,-33.829663371998286,-25.101458177212926,-19.615177778941685
1460.0,6.743019878997644,13.125444139206238,1.5230074519991192,34.730698156015734,21.71893860864678,-17.00989750430922
1480.0,-3.8762308494108826,8.261825767174749,0.8799574179930809,-27.222014701421614,-4.643170157474078,21.409383247997482
1500.0,-0.05491390890422676,13.854077096629377,-0.7829817735124966,16.10818045614222,-14.015815583026994,16.416603865091858
1520.0,2.7263411304350456,7.58799988515045,1.9316528486335627,-1.9514277004835239,22.090927196134455,-20.23710237873317
1540.0,-4.401412221325509,6.269096792312315,-4.803794317767471,-10.965980828359786,-20.226807394602197,-21.378835099997396
1560.0,3.558281502433573,14.651528107049602,2.230961745756568,24.98575065801393,6.834395508191947,16.39433909355197
1580.0,-2.691323960923247,7.794183494279749,3.231048642988922,-28.851844150114385,18.21360624859368,24.41860535642159
1600.0,1.3777142208316442,13.740519719121421,-4.238379451278998,37.14020442524216,-21.232589733607,-12.636278744799096
1620.0,-1.6033518349154696,2.6809230862534297,1.2964338519578578,-34.438831079756945,17.717519538561195,-28.54872392138421
1640.0,2.5081069357908072,14.583790782813507,-0.5677426250319377,26.856834276055316,-8.598800579967607,9.592190481873892
1660.0,-3.780781556163584,9.860393599846738,0.5834825556207007,-16.315763984071474,-9.117711846600121,33.16455950212322
1680.0,3.763478563584306,10.26037004208591,2.514683554068948,9.518582074955532,19.306478536686885,-7.1065790903246775
1700.0,-2.00987640337457,8.047515950304243,-5.116654786164179,2.223056160248386,-23.455827026210486,-30.567532633728064
1720.0,-1.1820540523400744,7.4192219624731015,1.8937946167314519,-17.840446372351852,12.232578764960111,5.13295159701824
1740.0,4.4439157719092215,16.376604649628543,2.9493638962776707,26.969664607579727,8.17779845327675,30.320154470293158
1760.0,-6.839940186744104,5.049863953164303,-3.1670212124048884,-34.75986294926122,-23.190518736475227,5.476436118751835
1780.0,7.541283074616495,12.339010227264257,1.3570443207348393,34.668803970944325,24.91881335775628,-28.102189664635304
1800.0,-5.687299928712383,4.727499717942653,-2.216289961286219,-29.954697228844353,-10.620746969919525,-7.636259682758953
1820.0,2.481536150740901,15.424810598375853,0.7434133270972769,25.032915552610522,-8.25670664119368,27.27390839143484
1840.0,0.2658307370888392,8.66931943993656,3.521311416957885,-11.400019765676197,17.485976176246943,11.224948681973963
1860.0,-2.9285026306553226,7.458841275579622,-5.0026795828194786,0.6594059452989199,-24.841743133361412,-30.363291254778826
1880.0,3.414332827247763,10.567198621092716,1.1121635336880573,10.138002103723949,14.67746159032309,-15.15425869495018
1900.0,-2.668868018409983,8.89303373260058,1.818857269869705,-20.449482027926074,-0.20875668188067475,22.50803868199707
1920.0,1.8505604389531616,15.81753156640892,-1.5610213425814412,32.53132276569905,-21.857456484485287,16.271614157369658
1940.0,-1.7159087038363332,2.681202721069344,1.7643035706897288,-33.22979770966878,24.149463481687494,-22.136587247189606
1960.0,2.4666914213286453,12.910653242691403,-3.7919659227102698,35.294396642369804,-16.627588864695017,-23.35037697931518
1980.0,-3.660346560390957,7.668174142485162,1.2976981883339351,-26.806685865839654,-0.4789139563782922,16.32228509579122
2000.0,4.385470645474207,14.237055445540527,4.349394572728572,18.53265273696204,18.882889914604522,24.38942764974781
2020.0,-3.91072242338775,7.245789894980582,-4.207434267523904,-4.082091341428546,-26.5799972208002,-17.18430713934288
2040.0,1.2165458156303688,6.547015734434267,1.0913559928759424,-8.45203502795484,22.45588519093691,-26.089215426054977
2060.0,2.3950984202387824,13.547257271163959,0.7027218438206807,13.781047561416273,-1.914890112836774,12.013952348137824
2080.0,-5.576030403754829,8.264956763975015,-0.6704858621864619,-29.112809355824822,-14.0579885192797,27.272200980504564
2100.0,7.26603130924947,14.004261650682741,2.799584596151702,33.91114656583801,25.58650676033771,-7.176637563595154
2120.0,-6.6805611406929755,2.0029643218279976,-5.126851014179795,-34.81567343777056,-22.182857175966262,-29.903553285162765
2140.0,4.358854880481224,14.369234790329434,0.8612254043014409,29.139474496854305,5.948857857574428,2.342306041700811
2160.0,-1.3701580400471256,9.106724951578784,4.146157201031393,-22.77180747473095,12.727812760051957,32.36977667956457
2180.0,-1.285867713429859,11.47876866609816,-3.3138858904863,12.53510692931485,-27.44994784687883,2.9081915537475913
2200.0,2.5995483322991726,7.544192948783094,1.2499855928846189,1.7988213748035788,22.824426816207534,-27.31746826832377
2220.0,-2.416722720451509,7.315949412147708,-1.477192635260757,-12.513295953565608,-8.421479767618042,-7.281177047249551
2240.0,2.0515788013011345,15.871996511075178,0.32938177152028686,22.996107996799225,-9.095055227792887,25.72623367527016
2260.0,-1.0706476334386554,6.455572543082141,4.001823944709284,-27.01669681742134,26.69574900284844,11.523040133851111
2280.0,2.0673955790730263,12.381752498866033,-4.794578127015639,37.162896074815094,-23.54189179121493,-26.806096945209728
2300.0,-3.389428858918902,3.7878222891708693,-0.03724382543742161,-32.333132320278075,12.362824126892225,-13.343819631734748
2320.0,4.786194423584369,15.754351524057427,2.997833889337729,24.97796442226955,8.656472692800666,22.1308097626109
2340.0,-4.966244689944353,8.922782043901831,-2.037986890148717,-16.547615815135984,-22.025057273853733,15.790145709438335
2360.0,3.6133215705983455,8.323261679776307,1.8804041156940934,5.518999797135901,28.117224270276676,-21.266144544701284
2380.0,-0.3763917967613882,8.66175075024016,-3.116975062564917,5.868655984332328,-11.662477290439655,-19.453222546482532
2400.0,-3.37634046899827,8.716114474603524,0.11088518345351292,-19.689736399221918,-6.987756303587657,20.675484465983743
2420.0,6.158038819981939,15.938519623047101,4.553932567281546,32.64386435839134,22.655917314098385,20.352640835549966
2440.0,-6.877429806995416,3.63948631668365,-4.868573996216421,-35.6839735802325,-26.33162273909333,-20.015810962102876
2460.0,5.962410437042118,12.939468016816583,0.042903180068935905,32.59689581001017,13.351693148220047,-28.22041094312808
2480.0,-3.324433403371259,6.386273443618977,1.7310484149838543,-29.86147482230927,6.101712072075375,8.574418028561935
2500.0,0.2660265154271402,15.178910760644719,-1.3804048338739927,20.303440135993707,-23.32941628169568,29.37772476696462
2520.0,1.5031968920783016,7.411338991317001,2.991366217077879,-10.286438676483478,26.45371536828267,-13.294635105716921
2540.0,-2.0239991596986715,7.386476864521255,-3.924700487422535,-1.3223049156846463,-14.856739854726106,-30.401118143923288
2560.0,1.767977836553645,12.19141055352004,-0.21724079778192545,12.071634235745623,-1.1158398552086861,5.16321669889396
2580.0,-1.0258043528566532,8.919785532483738,4.578993911339675,-21.429592097473755,15.284131960602494,29.031241628351456
2600.0,1.1028323095646326,14.464653353871071,-3.680301035468584,31.0165198432618,-24.797029822467543,-1.6615119015436357
2620.0,-2.6092602369850346,2.0777527876059114,0.41719444325269567,-34.71196242372809,13.812852248679128,-26.43479205088935
2640.0,4.187214547029852,14.148457560974487,-0.06385480029271998,33.94661462686461,-2.303199890194569,-4.846356370464469
2660.0,-5.561028069782507,8.637393423025511,-0.5400342081960453,-26.035406395222484,-18.214745959038908,29.64833541670682
2680.0,5.116484555854285,12.848829812391172,3.93700350601423,11.018529050726707,25.152964433530826,5.568873560991887
2700.0,-3.0370575609349535,7.210558617802131,-4.23177547163324,-8.350031637921024,-16.43265140503291,-25.45039290084716
2720.0,-0.7098730009664422,7.686895195012316,-0.45194456362781293,-12.548950719698153,0.07339079121131209,-7.636125303893533
2740.0,4.355920683062394,14.752878316236115,3.99934252853755,23.302175530199676,13.95539310639034,29.259208219654155
2760.0,-6.534503332034439,6.711804742768093,-2.345718706657907,-29.152660788028676,-27.858925437937177,14.968503279186995
2780.0,6.850241530916121,12.652845506286853,1.1746371762144583,35.287917678857134,21.957205669266504,-25.18963364899405
2800.0,-5.1532317112081465,3.3095657038444157,-1.8796281364059941,-31.232242448242673,-3.6161181812383747,-17.253141513071768
2820.0,2.0808821631224785,16.03602786978665,-0.3386497091314017,35.11319477239881,-14.169252888872112,19.06463498309048
2840.0,0.16336230816308872,8.95040828889314,4.869253275140114,-21.815756363454142,21.64624697799291,23.020834968060605
2860.0,-1.7170703186525955,9.81664436846742,-4.498016787330407,6.21327341081877,-17.68724281676627,-19.886964349668233
2880.0,1.3416812997556655,8.093746959498135,-0.4818976162516162,1.2784141109157314,7.749228452875834,-23.017936967899516
2900.0,-0.27062736509125646,8.880524697581272,2.6253370774654927,-13.240579235749578,9.695362933054675,12.940722541531468
2920.0,0.7662531025143575,15.748307226776403,-1.4040976448086075,24.695068089271714,-20.46530536622796,25.466080668628713
2940.0,-1.2122878876378,4.376842133900291,2.436126354625999,-31.62460753948718,26.63829308436212,-7.3232289740085275
2960.0,3.654486448912669,12.140824218369346,-3.0112314297918767,31.536361674373957,-8.354737552516285,-31.70925361681559
2980.0,-5.21206789550005,5.833933441550412,-0.935605912476064,-30.86970788506,-7.734747177708246,7.935071209875234
3000.0,5.997856990082729,15.839701779202507,5.084693352081218,24.216134783558214,24.023276002989146,27.61704303220393
3020.0,-4.650622408272102,7.544338569478471,-3.4338387827445516,-12.802667174055365,-23.1395028630118,-2.0542631325653464
3040.0,1.6061924344533782,7.930468393113517,-0.6682372630827984,1.7857924481011813,10.504641585454507,-31.301025643352467
3060.0,1.9613357536734677,10.888133500246447,0.8949281284348038,11.792395497289567,6.1715509542632105,-2.6556387328890567
3080.0,-5.325570647912028,9.298343514816608,-0.9988952757551768,-21.738457115082063,-24.190208438310016,28.506481092729327
3100.0,6.743699306855702,14.374635982633148,3.676773781593378,29.639937368630747,25.28304033955052,8.051415335292514
3120.0,-5.990413069078401,2.383574200867932,-3.6154331716828665,-34.62385657492016,-14.608591695202406,-29.241520533870702
3140.0,3.7505327319353614,13.811024963638323,-1.3146277807001514,33.95536058447769,-6.093737152947644,-8.826791776102208
3160.0,-1.6225448505329065,7.976763043545293,4.694745308303748,-26.480476955194934,20.016866556637428,29.37138045879038
3180.0,-0.1820905816251644,13.800864417158918,-2.1469042595507646,21.033086219390743,-28.66569260993852,11.044469455756225
3200.0,0.8622575273218682,6.201355521068627,0.5076658439921742,-14.51212245440976,19.34690918194006,-20.68176262569783
3220.0,-0.09428448726553469,7.6154861583275455,-0.8601871355762929,-4.117211795495248,5.472901534957998,-19.480117301167258
3240.0,0.10773490185169993,14.489797441420734,-1.0868855325871822,14.20449151847642,-18.101533630971364,23.585938063839773
3260.0,-0.24555862961149766,7.996079899860696,5.019268843598512,-24.525782724144285,28.08664628524039,20.578123515933225
3280.0,2.0725504320647654,12.805997337877553,-3.464245122564055,32.96908534974077,-14.446198277415462,-22.665393801657558
3300.0,-4.439558616377892,3.1518695565887436,-1.5626714626340654,-32.91224675258146,-1.6352495526996917,-25.27476238337197
3320.0,6.50202345616478,15.82628476493402,3.1773987578643146,31.161975628041727,20.553471027804704,16.76607352301457
3340.0,-6.137004193195072,8.386709408122726,-1.9118271992405866,-22.964099986310586,-26.463226581089707,25.971031881581947
3360.0,3.726649726213216,10.665144530342205,1.894373068887277,15.88223142107021,18.774218514269492,-12.76702430320936
3380.0,-0.755818150061522,7.454336339741372,-1.9089585024913291,-2.234525749284976,-1.1146131038953517,-26.25834846583096
3400.0,-3.240076063917326,8.852111102307706,-1.567606921789087,-8.894697691989764,-17.28932175544419,6.6013205981012755
3420.0,5.794684470321224,15.245170450686249,5.658626620049476,21.502048164127856,24.228605024902837,33.2596531580923
3440.0,-5.938278716839306,5.036489961992446,-2.8978515778304708,-31.993980080063505,-20.87519605661071,0.16118082123650357
3460.0,5.089641617147381,12.186512070002461,-1.6490919802594404,35.31066547729632,1.4685205939031931,-29.923396139244023
3480.0,-2.685034390461384,4.821299510050643,1.9078133079648807,-34.10276618869587,17.854453440038352,-3.224624001190595
3500.0,1.0197132006856364,16.66395975737783,-1.3929738940242764,27.29131485234778,-26.417189113125403,31.23036782424835
3520.0,-0.04212973975019202,7.1117676606904645,3.3954130647811462,-16.689737332511633,19.57599288116398,3.9284600420551037
3540.0,0.18227050254293475,8.818921145829444,-2.8642377460027584,7.486862492197341,-5.913121323662435,-31.559041101079075
3560.0,-0.36563022590168387,10.120286719707906,-2.646005341332229,2.3935123315061184,-9.459065071043401,-10.078425536173
3580.0,0.5218793701476487,9.573194010577208,5.15832420915319,-18.413618036876972,23.22870378584216,26.29925405113919
3600.0,0.4472176522228504,14.545139494052481,-2.2209688347983922,30.717982717252774,-19.781638454518276,11.110650379876589
3620.0,-3.439191874521424,2.8490663792026347,-0.7248623149541358,-33.21071343910298,8.06445897556453,-28.22019424662456
3640.0,5.838634425661085,13.090426891115584,0.1925143045469051,34.251719680167916,9.812881462859913,-14.147968687320159
3660.0,-6.831209093728545,7.219733306572865,-1.7518134812247568,-32.16134079438245,-22.60757234884239,26.44934268710182
3680.0,6.033879338662496,14.829560361839187,4.80671598673341,21.136340853304226,23.01657646321011,25.38478989785699
3700.0,-2.898561038153983,6.25966115717486,-2.770580447367511,-14.646735791442053,-11.245277754704006,-20.05886651377019
3720.0,-0.8745303884671893,7.955258331510579,-2.6319084435386033,1.9353842648154274,-9.542206877621851,-20.40595208669285
3740.0,4.241029325590073,12.600696162743823,4.147985458353291,10.679954676757392,19.822905565611116,16.506744750537823
3760.0,-5.69306681898247,8.563687543632199,-1.362460197381123,-23.773419491102608,-26.5207782108451,24.303960798872513
3780.0,5.324208121764888,13.120709359895315,0.6490864168884699,29.586100372585467,12.703848785177746,-12.152037144351224
3800.0,-3.6490664318074,1.931222621310161,-1.0930182177484047,-33.3857027871301,6.656032717398409,-28.055797907089335
3820.0,1.927472207928855,15.184500426590121,-2.474100247863425,32.93989919552721,-21.484127155200287,8.12435619105177
3840.0,-0.8834209876029927,7.775981534002208,5.560359193472487,-28.110083261123254,24.20035622157632,29.9742334883413
3860.0,0.2968045037245749,11.85875862604645,-1.923922427847297,17.984123198326145,-14.771213832817915,-3.175801140688976
3880.0,-1.4258629027363523,6.876219128971988,-2.604118432888915,-5.809101522235813,-5.8928282758060835,-30.464066050099795
3900.0,1.371888480662958,9.000153255354558,2.273096761426815,-8.128694545563276,20.453795522288683,4.10358623951585
3920.0,-0.6042850406910713,14.825566018169816,-1.444939473474776,20.187650056941735,-29.614256743446436,29.33292257891741
3940.0,-1.4868777299004237,6.301317772581517,2.0969232691751136,-27.721233859538607,16.683888204605086,1.133909801940089
3960.0,4.669626990247814,12.167123001100826,-2.129759455306774,33.7097362345284,0.5407401493133848,-30.071215143239613
3980.0,-6.600238678103574,4.1564927204894895,-2.885409903935831,-32.06196451119027,-20.384725924981623,-12.913033115436388
4000.0,6.70397358762132,16.494955160646562,5.407608694992867,28.990148390182576,24.09361943590392,26.173661641867884
4020.0,-5.385229097981578,7.39131697838532,-1.837951494279023,-22.897987030584716,-16.874699463038557,11.57451235893583
4040.0,1.7431904199853463,9.41951302041562,-1.52095780625439,13.537314161830322,4.184997507401472,-26.875186295537752
4060.0,2.1013330577639326,8.203573551977332,1.5540439612689998,3.1753459472914427,17.269448233543486,-15.196225124837257
4080.0,-4.902428289348984,9.88999982444327,-1.7694414184647882,-14.372392065368915,-27.017274985431275,22.63924037778708
4100.0,5.392380339573002,14.85325909513614,4.082157885221746,22.359418483769314,19.90270828930066,21.319613795228342
4120.0,-4.781276277535734,3.4900611472856107,-2.063840472854015,-30.963244723474865,1.6142737196299617,-21.078569396611936
4140.0,2.706713992403026,13.096924823100158,-3.681214411900122,34.17317526610127,-14.38257018629937,-24.67064767561861
4160.0,-1.4027438265478223,6.776707354432865,4.6166946339465635,-36.56875706602206,26.186042498094405,22.841179543907735
4180.0,0.9071726174206679,15.501914760024125,-1.423246962859551,26.789653507802505,-22.080061158248146,28.245875961252622
4200.0,-1.8483794236858566,5.825803731014758,-0.15360668218496365,-18.591136000978896,8.540308268681583,-14.010356921869668
4220.0,2.260072049591389,8.385619729926367,0.009793766822259242,4.573255471000566,11.614233448759144,-25.306949932724688
4240.0,-1.6683541955611667,11.637895589332128,-2.689663313374228,5.923435577160946,-26.746511075826398,9.559610413151157
4260.0,0.33358517176352437,9.390315642156386,5.1123807518918465,-19.872367475271943,26.76528441606723,25.777317627734842
4280.0,2.319236377091507,13.387350258420344,-1.0749496133891736,27.542277370829495,-9.824067516063925,-4.983355623483674
4300.0,-5.247673562970013,2.43224705340297,-3.4414545031601262,-33.76773630108652,-10.836480147602682,-30.11033371022327
4320.0,7.242431796460823,14.928046932180928,3.4264157851076344,34.988514631524815,26.483677769159932,0.07108228544315764
4340.0,-6.609857551743913,7.936375721325523,-1.5589751732131927,-33.542190245015675,-21.2367172965776,33.020506044723646
4360.0,4.381535218486381,13.112032657235016,1.8589249961843792,22.894206851392685,10.608025316319395,5.375785891252429
4380.0,-0.12167675008396839,5.589357837254569,-0.7485938279630425,-14.543381425759893,9.155876687329123,-29.288156899091355
4400.0,-2.9693570932129885,8.792025443718272,-3.017299701276405,2.6436812599340738,-22.39447889204239,-5.711073387936958
4420.0,4.5345287273919,14.242684021537848,5.277778113637634,12.447061933299548,23.524149241800245,30.258992505652643
4440.0,-5.008565616082446,7.187931257741566,-0.8564761555144266,-25.96973900854056,-12.565495237863383,9.73759431371237
4460.0,3.5179353099467203,12.003723621870083,-2.3935728560349787,33.96295268684826,-6.246511188922311,-27.499104042719644
4480.0,-1.7584027025645979,3.5568990968319265,2.0464211460704043,-37.707781059091104,20.98167730903449,-18.837019252169817
4500.0,1.1160902595854674,16.508617799224744,-1.8739491640434398,30.25612705711681,-23.08754987071486,27.783949149861662
4520.0,-1.52898170200356,7.659689971274612,3.513061546002878,-29.981580713012775,13.156219426165979,16.988995235853267
4540.0,2.6386484104055987,10.026740824173586,-0.6755168826900475,19.694983399671965,3.715024814456846,-24.63052115435407
4560.0,-3.0823962040058634,7.640194036546692,-4.053466297089004,-2.939620193083413,-18.88055481976335,-22.537369314326515
4580.0,1.8513415261941706,10.301954773404091,4.979308868508063,-1.6254937449358842,21.925942712080477,16.441911601246893
4600.0,0.574485887956475,14.878230624989914,-0.6584564058564326,16.6873563672444,-16.390586547984334,23.857415042857276
4620.0,-4.013220882852055,4.476604615387763,-1.4256292441489404,-30.619822994854733,1.4139211302177666,-19.258995194556636
4640.0,6.34312957796016,12.569935698814671,0.7163325267691751,33.62227550761017,17.1405916785298,-28.412333270236108
4660.0,-7.1785636350958155,5.458571866128718,-2.7708484382147702,-31.19641127051164,-26.114753618424338,12.180551932090113
4680.0,6.177806083171641,16.4687045936191,4.538317016592757,29.76226033918901,16.90596867189828,28.738098252510458
4700.0,-2.6569526135546395,6.128290652719648,-0.5436257729451954,-23.55374652443456,-0.1910451106747848,-10.51184215789256
4720.0,-0.7524295263548226,8.771350285851295,-4.103619153200096,10.502117347140228,-16.71167360503021,-26.714476901072207
4740.0,2.925008478199734,10.386206035461658,3.870440338875843,0.04220882881060861,25.24746770488887,3.190871532999949
4760.0,-4.318742951336191,10.187167152805849,-0.5513750504227534,-11.611845652564577,-22.59051297185892,29.468608267364544
4780.0,3.767548252106291,13.668323239022879,0.5417789234317808,21.951705815840437,3.180629662290365,3.279145876372771
4800.0,-2.431925324182697,2.7695908182128828,0.48847341797270116,-30.573564203761098,16.449752051432306,-30.912045857560116
4820.0,1.6192506191422387,14.684358636915958,-3.7255337911012294,37.46464692627544,-26.381745301159015,-5.685752974798485
4840.0,-1.6067038930421562,7.5048042606557805,4.68554492537026,-33.66047968826925,20.948275703843542,27.185135931139072
4860.0,2.583464113483863,14.604382653397089,-0.26615458336576103,20.716798573349188,-2.8561069769107177,9.279246052985837
4880.0,-3.7320477464481683,5.203292748744775,-3.5836929346968462,-17.131582512612678,-12.232731081905676,-25.587112948609
4900.0,3.120215521910465,8.891172777114873,2.55014627104536,4.431571998605827,21.630074724115303,-12.615995105742016
4920.0,-1.0975131119519417,13.178466400753003,-1.3247444710792855,8.075448208165302,-24.01665830766106,25.242754195499323
4940.0,-1.4318768167626237,8.151920612668645,1.9632357020054418,-20.357185243986684,8.63408797588809,14.623697246895066
4960.0,5.19491096738356,12.286702132354765,-0.635997052763787,28.9710731087942,13.258372834712446,-26.140827042938053
4980.0,-7.192790708856826,3.2610665210440555,-4.787429343284835,-36.82736137282474,-24.384897354626304,-19.656391603023476
5000.0,7.28602504357934,16.43239659480232,4.694770394663391,36.86788400971621,26.39976909865493,19.025087744200395
5020.0,-5.386727256613806,7.753229717124217,0.0025732132554723702,-30.119225273095417,-12.498717809610634,20.672671097249705
5040.0,1.5811997384180831,11.170718014989482,-2.398916605053219,20.266621577133613,-8.438963462237563,-17.07442954644977
5060.0,1.8737750441196153,6.142169889026697,1.36614363025218,-11.788335336449066,23.983530128758442,-25.058464253735774
5080.0,-3.34592960397916,10.391638801624778,-2.4724156808428943,-3.6640252316449913,-27.30432791373043,13.469751963184109
5100.0,3.4165847896023496,14.587897310882243,3.591846068636482,16.19431128814404,15.179387308846747,24.999558469393783
5120.0,-2.347886243156827,5.642573989504578,-0.00355607590478349,-25.722044211495856,0.8900066387808918,-15.373755378493762
5140.0,1.5271257473430249,12.23834299175457,-4.94283025799215,32.15680006311353,-19.856152345983947,-28.57154775620606
5160.0,-1.8279761634271872,5.253722994780563,3.5431523653339525,-34.657506020793996,24.489199561601918,7.218306580738961
5180.0,2.334273836342525,16.571182573074104,0.12934106419292613,31.983916927509714,-15.520906209922707,30.042403512731767
5200.0,-4.083091911770991,6.426093883731614,-0.5640050202972159,-24.321738456351607,-2.272905470711568,-2.3940090806081504
5220.0,4.3006980262646,9.445377520088316,0.2493334298203892,16.48387856260278,18.598039586721995,-31.517828992539904
5240.0,-3.456047131727634,9.151837173167705,-3.7723968235727354,-2.7576047378896162,-25.56550501282883,-0.6066120046310779
5260.0,0.5610750273291479,10.778742142364592,4.344943012232575,-10.117741040152147,15.350168672530414,29.34699224439093
5280.0,2.8706908837648353,13.449943592534884,0.7905112261843202,21.473970401554908,-1.3470879762939436,9.34914086062206
5300.0,-6.025394687653016,3.2123839428100855,-4.560027235860299,-29.35162423103527,-19.042481695185245,-28.142865946694474
5320.0,7.32819806369504,13.605523311879235,2.6662704436007023,36.11080699324994,23.67507126009383,-13.745541208344372
5340.0,-6.443804171722531,7.278048125743072,-0.8081304224009951,-34.937632447844734,-18.045278649551847,26.425269019824757
5360.0,3.659099286655394,15.380681075859046,1.2967670362285084,33.93050186451103,-2.396303289823824,16.244219365183902
5380.0,-0.40953164432632466,5.331334812419187,0.4256168775431287,-22.40411550668599,17.816424525503756,-23.79610637040204
5400.0,-1.6279998058451757,9.583403356329661,-4.887027677103919,9.540509616083138,-25.197220851334702,-18.904938937640452
5420.0,2.6230843759073244,12.63060993534232,4.319546693072254,1.2846110258166648,18.43746816112763,24.604019082019384
5440.0,-2.6941168983289177,9.248334990797318,1.108032300390557,-16.63816857802145,-0.06460839382045469,19.649872111041905
5460.0,1.825110637757965,12.060253991844375,-3.050763752116873,27.51126602085742,-10.897307493156648,-15.760584236127876
5480.0,-1.494333873950125,2.864995749481946,1.4042230596931415,-34.07158158635339,24.867127006619697,-31.05387926947798
5500.0,2.2070701745580594,15.750295083688542,-2.0816924214234294,34.39729389577963,-20.903098915711002,15.915942326267936
5520.0,-3.412539780068182,7.312063506037354,2.744062209511128,-31.562750893220272,7.770794505203117,28.914675331664906
5540.0,4.715461534487756,12.240756270982194,0.9043866734422601,22.331359726943663,10.94927867904791,-12.474870117309768
5560.0,-4.6169423202811695,5.059807323449983,-5.168204048595307,-17.75328266917909,-23.348115767952333,-31.29095766059764
5580.0,2.55752896845618,10.624208588457002,3.597818381774573,1.6132843064906437,18.969220326352247,2.780932508507345
5600.0,0.38437303711770227,14.012032106746211,0.662790455011803,10.894321407170516,-8.93342835117452,29.553955805552008
5620.0,-4.318441146884783,6.595521650464921,-1.512802278369342,-23.31446845173061,-10.253109920246363,-0.8914051198787145
5640.0,6.750458631321844,11.605502362471423,1.7969767657917277,31.25321897079394,22.129553668762085,-29.36624332427065
5660.0,-6.770384683054346,4.58944516641961,-3.253672203792033,-34.06585684159637,-25.49916591901882,-1.9052766035568693
5680.0,5.631780049485877,17.289716198267293,3.667850965473745,36.06993526478615,10.296570682402516,32.210901585384455
5700.0,-2.378424320865223,5.919528632861951,1.3657805523526816,-29.306985264719074,4.816054218676583,6.74470653115082
5720.0,-0.3589008383287437,10.446300216667698,-4.80622676670749,18.614271868733717,-21.173228388952545,-28.19550852341348
5740.0,1.9070023931218576,8.116597731732197,2.4919330733524143,-7.073304429606327,22.383844920324414,-8.325079922824889
5760.0,-2.296655555436198,11.3304193490675,-0.07700397252002963,-8.866363157864416,-12.739981505393708,26.137913990419882
5780.0,1.4401190324461843,13.317968272301307,0.49916251657471705,20.437010270253637,-6.524486052721449,13.950269328320259
5800.0,-1.0556382943070928,3.731166623823535,1.5244927323770672,-31.389947749548238,20.81595780805769,-28.679142025327703
5820.0,1.5244534023233631,13.250688082783837,-4.23128673462696,27.6900563701341,-25.4983725821045,-15.290576266320539
5840.0,-3.0633170697424643,6.907206019946246,3.234410699432503,-33.754100875399104,13.995556822484094,20.989296570699818
5860.0,4.678148262483459,15.995307747472324,1.389488432816266,30.253339407317366,5.757189437242266,21.53057676509597
5880.0,-5.750314175008748,4.73686915453423,-4.045506924980437,-19.666675805041812,-15.416829213980389,-19.594540871451677
5900.0,4.662066593592275,9.583806248958368,1.9812109900208723,16.073023267265622,26.397808592967607,-26.983153991672378
5920.0,-1.9299389326371452,11.30693220341433,-1.0715343556925563,2.215297263991202,-18.181511741220106,15.056588292072501
5940.0,-1.7176625314958276,10.106089559204488,1.80492422555522,-14.655342733713638,-4.47430525193963,26.618860970893454
5960.0,5.308392985010457,12.255885623228425,1.8868542423011614,20.493455631197552,16.61936601469918,-11.932064370939122
5980.0,-6.541939266645159,3.07758596513967,-5.885174360728856,-30.286973005882352,-24.53335352928762,-26.436832574699963
6000.0,6.058859565031533,14.891356410244432,3.1108545524833264,36.01709528458414,13.671664324940128,6.286965586065223
6020.0,-4.663654454851425,7.233707749044678,1.9575586332158057,-33.16779830347721,5.135086573851469,30.235051400346602
6040.0,1.6369353330020582,13.403549757470651,-2.6551221289995324,28.102504675023646,-16.29456627258601,-4.632592843408733
6060.0,0.49425273531421765,4.626156700833307,1.7250463028755227,-18.805817021535933,22.79648582464995,-30.955138473768134
6080.0,-1.6854625057313926,10.34595680889424,-2.8251082826716503,6.147649926585995,-20.571380490207325,0.5353892540763909
6100.0,1.2577930017195116,13.009755724535648,2.7689794576552944,9.97195975333544,1.6248304930752708,28.721993575127954
6120.0,-0.6620195554475866,7.502456865816679,2.1482650152371785,-20.19955011592002,11.06066199386261,6.21258069414772
6140.0,0.7445901977858892,11.287213998107276,-5.7404493787396405,24.778591826569492,-24.41027818401898,-26.871495020684634
6160.0,-1.7419899550458549,4.036212180600802,2.3569601303743024,-32.265490939013816,22.63203779201532,-5.52107201815887
6180.0,3.81364970202138,16.944975145546444,1.3076633176963668,33.56644081360356,-4.377305972332744,26.523307064318097
6200.0,-5.877254770695199,6.288761918617876,-1.437077515027203,-30.921735377609696,-10.427008629515225,10.114167163606432
6220.0,6.042126799202221,10.848072642915502,1.6808261921383691,25.467395637702865,21.04912307832757,-27.309438055962257
6240.0,-4.071418923139678,6.663073715677979,-4.372777798133477,-12.136588298179975,-22.029159949457096,-14.51503427342115
6260.0,0.9423517237656837,11.82285506173037,2.8049948642652844,0.4892523792737402,6.870986846515875,23.27679910356547
6280.0,3.0297357336780935,13.380244429086126,2.9550523615667124,18.615166693661106,11.727552303634667,18.877919239752416
6300.0,-5.918464027074015,4.909248228802528,-4.449705004125206,-26.394773381344308,-22.121619383186143,-19.65662446811243
6320.0,6.7425842131713445,12.337601165159825,1.6887733848359552,30.911274271478874,23.852191911892874,-19.078472325740293
6340.0,-5.667016600243603,5.902502605021726,0.22472742974104598,-36.3058027034511,-9.915479526792986,15.748998876196005
6360.0,3.1483660993819447,16.71080768556253,0.49557889481598494,32.766760709506144,-7.7178840379826426,25.90397391981399
6380.0,-1.3244168829457514,4.741169693865026,2.4372682428785453,-25.182477599633458,22.82796433251189,-9.355830473332649
6400.0,-0.6020373231885776,9.972688859408134,-5.106694070340751,15.056645298870063,-23.870346751214637,-29.36511527918
6420.0,0.7041534611054336,9.55543641047875,2.333686490080645,-3.3687730107584875,12.511616286971716,8.749518185385751
6440.0,-0.21044354414770008,10.932299705857412,3.0026123632577066,-6.13624312488686,3.235275168996805,28.294989223021147
6460.0,-0.3141227367165804,12.606643645736883,-3.262583317272392,21.687990349283353,-21.753133571866275,-5.849047828461086
6480.0,-0.49726954492149844,3.108383181333015,1.5628104542243597,-31.48036827019771,25.639432960902816,-28.866183543562922
6500.0,2.8291970621084634,14.565006855579199,-2.058731793468818,34.22203322022576,-13.834936327216171,-1.252688999036174
6520.0,-4.899436721491788,7.20457249689897,1.3763433359381019,-33.4308198989548,-1.8589119286599605,32.517030602129154
6540.0,6.421444571970061,14.242703173253261,3.0066995455238,33.01434389483441,21.46466750045119,3.1588303997951197
6560.0,-5.878222595805106,4.098021220757593,-5.625604968581212,-21.621556815227876,-22.826443406206174,-25.426920744631587
6580.0,3.246834712816921,11.075409935414335,1.7847049853331318,11.75474555901487,16.09623167807991,-7.744093072496258
6600.0,0.47732353520751103,12.97189547569263,1.7781013732828814,4.442718384328846,3.0164082066126703,32.14055829834639
6620.0,-4.047553538434644,9.020341134322912,-1.705132564625529,-14.206137530792848,-18.992724234139946,17.34475150534668
6640.0,6.463660296292789,10.883388043046674,1.6782196721215474,28.331810167225942,27.681948616077072,-26.932593646073244
6660.0,-6.33311176535006,3.9343482112281456,-3.5203906733635364,-31.41169441711051,-19.5789652549034,-16.14777154469793
6680.0,4.799764382868585,16.886710081278178,1.9418016524416377,35.763889953512326,0.5227351470059298,25.550221156749608
6700.0,-2.570004939412129,6.388434876281817,3.904326437811988,-34.26000858832643,17.093304757633454,17.68910511064555
6720.0,0.4774446601417091,11.719365286091692,-4.751910737181228,23.97082896766304,-27.568778502200963,-22.1368029840556
6740.0,0.3753682894629152,5.444871204031829,1.175669673608572,-15.66078848750308,17.104152499302494,-21.561907162174872
6760.0,0.058275865169786986,11.557792049245656,0.967522132161164,2.576461920525498,-4.288725823263032,13.100243355525006
6780.0,-0.46975297525266346,13.178821081197471,-0.07321228744574515,9.91595517942945,-14.973243408897234,26.66296028084802
6800.0,-0.18776036586766998,5.202886323858032,2.32769443477929,-18.253544488825433,23.63852725021152,-11.437005992800717
6820.0,1.2780962876377115,11.810146485462973,-4.518210162460908,29.129914868721027,-21.310571245063816,-26.439388558902138
6840.0,-3.8630228515350264,6.0285846449388405,1.4305275850150234,-33.97303801452198,5.269581181293699,10.147788740190949
6860.0,5.715783595614318,17.10009345981796,3.7911746984399852,35.41653309196701,12.625149915198374,24.838402392271988
6880.0,-6.8833454471070254,4.896764784673355,-3.735971286194775,-30.785771315371885,-23.12292115132525,-7.836269527568192
6900.0,5.5195769894871205,10.37661057566195,0.9719606234970889,23.361046277857756,21.00187627600592,-30.782012191867775
6920.0,-2.3088315663632426,8.624764411253661,-0.8682455156686086,-9.07201120933225,-7.313034964569272,1.3861178478244605
6940.0,-1.6473295834242818,11.782966800617162,0.5699936218362773,-0.8024064823726822,-11.844810827996765,27.717783349867364
6960.0,4.880953918706441,11.657951518268066,3.2697468212870193,12.049583605007445,23.08996776032723,-0.08394878909668968
6980.0,-6.138487435084178,3.8441395008096553,-4.937453067929552,-25.907795655473702,-21.591003559731902,-28.909169078299804
7000.0,5.281700423966886,13.914611724466345,1.0559191519025282,31.2979113374726,5.976345576463721,-5.852370297841092
7020.0,-3.3423716301274,7.279103649039919,3.0925035174571134,-32.83418081057494,5.527320903486759,24.102759960425168
7040.0,1.5193619422520024,14.962986820192672,-2.1298618104340203,32.477847658017645,-23.163245553204426,7.600603358280155
7060.0,-0.36527779028010526,3.895406290318691,1.4772655123682128,-28.911752120495436,22.529574345845504,-24.382737952278053
7080.0,1.0163054537404652,10.924709032936006,-2.5418748019948865,20.35662174337635,-12.259534611951626,-14.335194506338324
7100.0,-1.3201744148234509,11.585301667301211,0.5451718606937845,-1.6141151152146547,-6.484193459713117,24.63107129935652
7120.0,1.2013899774518877,9.97153410064049,4.169835103473588,-8.00286949550039,23.266826149936936,20.31642094202083
7140.0,-0.01852129070429931,11.111057108221274,-5.073239505760553,20.46204451531805,-22.180438009658253,-24.999969781702433
7160.0,-1.8443102084785237,3.649204810392532,0.19044265350444,-27.51155033051002,15.062325680314151,-19.95629709924197
7180.0,4.933652391150095,16.338380230444713,1.8086803615755056,33.385143037093684,3.7747668219670323,20.36560424889104
7200.0,-6.816218479965954,6.665675773636542,-1.346252795056709,-35.860789553127425,-21.44549169575869,23.953219790209577
7220.0,6.574713418148783,12.54061504661681,2.6156170537740033,26.115961796612254,26.06455468519356,-13.87007915302619
7240.0,-4.283765768050069,4.684538005846899,-4.121340593203636,-20.765450620758436,-17.635289613990615,-26.95419132686637
7260.0,0.9521637631447226,11.882650806208579,0.9754670458323719,6.572609433969083,-2.5244768480302096,15.702842691789645
7280.0,2.6329087158635716,12.771837629793422,4.331974624287405,4.210289016629105,14.778152305728803,30.18571379315807
7300.0,-4.739485904710758,6.6622974128710295,-4.265712846215468,-15.900605603426378,-26.084221402583385,-7.725273817725972
7320.0,5.055324662298622,11.089123209759896,0.8011438765448857,26.34501371448324,16.612466151855646,-27.225423330405803
7340.0,-4.6874755323999535,5.2626158693810705,0.012646449423519945,-34.23084625038607,-1.6597675675342956,4.0063116920085085
7360.0,2.545605894643052,17.46266352687469,-0.3746405450294724,35.9537990428349,-17.009923021498533,29.411584869538192
7380.0,-1.6058553067074137,4.841132859489135,3.3412067954100384,-34.271541062456485,26.6811805247577,-0.1669189721447759
7400.0,0.49863859724725135,10.77103062069106,-4.442768736662494,23.26407487412759,-21.089420087882214,-31.17646656517436
7420.0,-1.3853241595574968,7.058510277949644,0.20343894496847348,-10.498759012983378,6.960393214771875,-3.38710026051653
7440.0,2.031958875662816,12.347109965898458,3.6520356797955307,2.9543396729183202,15.962219874543488,29.742055204645162
7460.0,-1.8142952168600475,12.103108063930433,-3.065398938665257,7.25832229661577,-28.34418665027519,9.907549648474506
7480.0,-0.42056356883300605,4.33634645820076,1.1683976637037172,-21.364101944580106,18.13815998867523,-31.1619205084448
7500.0,3.473353603792246,13.168269721036143,-1.5890137699204927,34.43518694843581,-6.439236041066806,-12.885275244518056
7520.0,-5.936289021289889,7.091247409305198,0.0854696494058727,-37.1036058093747,-10.131901871577615,26.59062847762704
7540.0,7.158984519598177,16.288173055461982,4.5444630769816206,31.156538306334898,28.773657442334162,16.004188549739492
7560.0,-6.299454461060316,3.694339099949332,-4.725613591134258,-26.928117986555282,-23.83709020747149,-25.31022105088214
7580.0,3.6223810691690086,10.91871404256468,-0.3397044670534056,16.63520186136643,10.292871617258477,-21.56730285040218
7600.0,-0.0074622465116332415,10.43224175883144,2.916299557473797,-7.455833445107072,12.509839766393371,19.679603644958533
7620.0,-3.9471167476091296,11.244549757144071,-1.7763446659227031,-9.75525590460504,-22.692317598934853,22.39580865625912
7640.0,4.843309867123975,11.041989644774231,2.118773938706298,17.652838867349896,22.02646132857602,-17.01710341603531
7660.0,-4.780637166574715,3.9755363343747248,-2.9305222675792444,-27.493160198101656,-10.96810177317196,-22.102838016026013
7680.0,3.224745398407969,15.649265509269947,-0.4275823457243575,31.02688279711586,-9.753442895601921,12.069043666418386
7700.0,-1.4143583621766758,6.980202780215912,5.083828223023268,-33.165800507067914,27.171506566240396,25.249251647143662
7720.0,1.115714819897342,13.415433543045859,-4.018921002585475,32.46443218109843,-23.056763273701556,-8.409499802643309
7740.0,-1.7242393046411846,3.9649953614656734,-0.4632384697375937,-24.432620959555422,15.385131672428297,-29.857551356000307
7760.0,2.555692786243402,11.84965461001739,1.1083097625154898,11.600254330691364,7.981788968767779,8.717278916802416
7780.0,-2.8749298721696306,12.48743828015351,-1.0546245180855816,-1.6144530901124474,-20.841444901866996,25.096222114163417
7800.0,1.5032054260961079,7.620735856864776,3.4960492941242802,-13.329727139568746,26.16694437170919,0.7085321730883585
7820.0,1.1989287876551726,10.408188234582978,-3.8525182050270614,25.834920711616395,-13.470531743745017,-31.518000155497184
7840.0,-4.649147624786072,5.1309049757937375,-0.5201464960325655,-28.721585590797428,-3.034154705262277,-4.6368799888830186
7860.0,7.157317635910053,16.89255017841533,4.63075178576867,35.9242220196254,21.172246170169064,31.01928985238741
7880.0,-7.492064643129049,5.782164189390322,-2.5876220231663076,-37.25553623282442,-22.84364111056357,6.36371223429278
7900.0,5.211087678959546,11.344005990715136,0.520786395910072,28.454977096218403,12.679888931796361,-23.52348530233818
7920.0,-2.362037688338996,6.022411021852423,-0.6045841728275738,-21.021441846801054,0.891533936090107,-11.811191641887058
7940.0,-1.1413591224748147,12.713444222867972,-0.8213068206588182,5.53710539861647,-20.7290712796189,28.533950158899508
7960.0,3.6862247005245115,11.822218352416124,4.467486699902363,9.936859511289235,25.55744728429541,13.915290835374991
7980.0,-4.379919356851833,5.273582588501138,-4.127533950338952,-19.168649501404744,-16.024801098735523,-23.94041866606535
8000.0,3.44747621340722,12.238086850750928,-0.948384484179742,28.26521332179032,0.9580721689657856,-19.77808215961474
8020.0,-2.1871310027066158,6.619967690217226,4.127084451809131,-32.20557165669069,21.196878451919815,22.523279389717906
8040.0,1.2631600735094266,16.780411309431678,-1.9064929186455564,37.88948440440864,-26.38581012856623,21.407253134642012
8060.0,-1.7569880570082066,4.043724845365372,1.2847224853830432,-34.51925261231865,16.071550811412802,-18.241700645670722
8080.0,2.85476821778725,10.829629166795314,-2.1715541582547626,26.47767299938514,-0.9118486976688733,-22.53533141483511
8100.0,-3.567064012617169,9.527818524897867,-0.7190939314801861,-10.695168904491629,-16.83814462702395,15.443135051213662
8120.0,3.1351752311316714,11.908011139658031,5.414706697524208,-4.258915149428882,22.60164601062964,25.91200675604849
8140.0,-0.849190384139626,10.562274121247553,-3.797550492910905,10.758623519666164,-22.434171275994906,-8.025051178777815
8160.0,-2.4576370347134087,3.8453320255012784,-1.442169249831589,-23.474262021847654,8.441476426759035,-27.336123099371946
8180.0,5.596382739199669,14.677608630984391,2.451233681067306,30.193746667066918,10.644991331672276,4.963736734333805
8200.0,-7.09091366137604,7.380847548095884,-1.1190174585923993,-32.940982327841105,-26.510650664399982,30.2820105793561
8220.0,7.098609733587702,14.296250308227068,3.095225483004609,35.398076794347766,24.305016555714598,-1.4279170009595652
8240.0,-4.417217593767485,3.653816420839546,-2.8867163391309596,-29.41324208811111,-9.820864238343582,-29.89059645086967
8260.0,1.0556349273503576,12.409746452613978,-1.6818724102476437,21.060478585826928,-8.50982048109959,-0.8850934865838621
8280.0,2.209606722021495,11.380792477650795,5.552780694425963,-7.1861062676726615,20.29444847546442,28.208140903681237
8300.0,-3.7702539831540935,9.443286874282816,-2.5555904439613046,-6.867835418208308,-20.267758054507155,4.89930149938693
8320.0,3.7126979017017203,10.18940739998009,-0.4321279754810817,20.92230543044868,10.07402750487659,-31.655455831516214
8340.0,-2.747815656982313,5.173532607773754,0.5850504424704265,-29.681409209926326,10.213511991597226,-8.292172755952464
8360.0,1.8916446460637641,17.120991973739404,-1.382037341922782,33.27696146657925,-23.331956579473818,30.13316761884643
8380.0,-1.8382843976210907,5.925348224278365,4.186871811678331,-35.43309499561322,26.02256650134367,14.469127163300318
8400.0,2.7385988036397464,11.988087081270796,-3.191090895087753,30.979230981069776,-12.130746401224762,-26.738707984720435
8420.0,-3.3294018593639674,5.039586106582075,-2.1622049976092317,-26.024809295003767,-8.716498765641106,-16.462058236476437
8440.0,3.3496601460326834,13.333400681832053,4.641117154162281,10.399562632014373,22.02720087304137,22.217506093112966
8460.0,-2.857200750113345,11.745052590782654,-2.0206373471149486,0.8611742986369434,-23.201011543479463,22.611247283963266
8480.0,-0.28795901290084225,6.319850792519437,0.6080753192445292,-14.488338367633853,15.5386259447607,-19.437080260727644
8500.0,3.8108694625035135,11.150579015447374,-0.9216536762262284,22.754940051517025,3.6835459157709036,-24.17365196411654
8520.0,-6.482723293439547,6.365153118814798,-1.3896115333268129,-32.87593463319424,-20.59599830361219,14.686514930894878
8540.0,7.5465695206306425,17.071731616559866,5.060435650548399,32.39854246134115,24.844899813054525,22.48189633522254
8560.0,-6.405305166817167,4.119310686043667,-2.9622474404260353,-31.704884469972033,-15.61953268860475,-14.188670450420275
8580.0,3.222458474646606,11.372142307067413,-2.2735437044242013,24.599506217296998,-5.169362872138173,-26.485640375124724
8600.0,-0.20832693088642906,8.282888999791393,3.630818313086218,-17.948635711774624,17.229035035438258,10.58321880829246
8620.0,-2.169181077214691,12.812662020902753,-1.3833818999499443,6.151786986419614,-27.02438115916265,28.584051723767352
8640.0,3.523637274110504,10.633352377567466,2.263674071587319,8.117913761358768,20.853943124730137,-4.005492238081486
8660.0,-2.9227761049366676,4.6230749537698435,-1.9682047013409931,-23.204732730475282,-0.8887335795407729,-30.663930755743536
8680.0,1.7905784635963211,13.90678506994955,-2.437038075650967,29.79751364408977,-15.838504484385187,2.5968235483846103
8700.0,-1.456574859446287,7.068304188975108,5.5202339488814625,-31.35101144896861,27.54833947087271,30.90808008807287
8720.0,2.062393558072767,15.259333124559072,-2.1702728642818028,34.5214235603176,-21.13631673443129,3.020631912512383
8740.0,-3.4289869685266945,2.58403061155533,-1.3858303044396827,-31.27266599073129,2.5374218560679993,-30.69630875125901
8760.0,4.7915599702981835,12.264189160372556,1.783616881733796,21.156487563782914,15.295108752308357,-8.101136961140039
8780.0,-4.133176775216233,10.400441694493455,-1.8014559673384516,-8.701382917405892,-23.014531295922108,27.58955449116685
8800.0,1.8942828836841399,10.424524593098097,4.0229976748984,-3.0739572154043775,18.833851830459867,13.923136186174219
8820.0,1.3563132632141555,9.864992871893675,-2.7756745248893173,15.134637499170882,-3.957962083965567,-27.02058708360426
8840.0,-5.010019438095618,4.720289822689252,-2.8380868537898403,-25.17910819266365,-14.342128545804202,-19.441854816353064
8860.0,7.451412181962247,16.417083705692846,5.128978444296157,30.204696556736103,24.430701282830736,24.007858368243287
8880.0,-7.145781393224935,6.177419641199985,-1.7236365767198663,-35.81650652181944,-23.442290630241292,17.47084055303252
8900.0,5.039011834318827,12.715502404354343,-0.6010217473606123,32.00758860008652,9.403582297626496,-20.479339926909187
8920.0,-1.8474450356012495,4.25242080486877,0.23826672817461772,-26.800845612948837,11.191825404893258,-23.50585249852446
8940.0,-0.7077224744185011,13.307775295041628,-2.3203271424606493,16.669529001984188,-21.63266410077228,17.703384652115083
8960.0,2.1711737850659087,11.800990757662444,4.6000880741117385,-5.8710396107112235,24.508141370860518,24.86501821798025
8980.0,-2.361824530377625,7.170322122559968,-2.1694050660198427,-8.945926602009322,-10.610310990544836,-10.599237067649733
9000.0,1.2052268835009838,10.639793537635176,-3.1168923886313036,23.36992022638435,-9.406315307901766,-27.626167807403046
9020.0,-1.4397296756961635,6.243172606010153,3.642867187181147,-32.331224713108185,22.183132870911013,6.159373539274404
9040.0,1.8350862303955493,17.65093345064647,-1.1709866002216633,32.88758696244108,-29.455782539582536,29.843305754700282
9060.0,-2.821557344374081,4.332391668068816,1.225186348695913,-34.68556847259786,10.247446498308616,-3.906615246630572
9080.0,4.842844172147272,11.567704710054343,-0.8173834226235079,28.10222635664561,10.009782303404567,-30.898767941385874
9100.0,-5.231445344760512,7.163658341297176,-2.883716722995307,-17.509546103722077,-19.980682681290006,1.8210550517821866
9120.0,4.1179157982764325,13.603807235084767,5.786423640888988,5.617284949805969,25.62223076078061,29.456387619324275
9140.0,-1.4340826203794883,11.275505602415882,-1.8236503979893843,3.7603433271094637,-11.655090603184913,2.6479813375357955
9160.0,-2.458835448666234,5.456012174738012,-2.6082450504853094,-16.871171600409127,-5.828097897039436,-26.996747563496772
9180.0,6.053636442934132,12.97401838691676,2.507782208853965,26.059871147331204,20.073316517274403,-6.236511452748871
9200.0,-7.371239345216203,7.048887332297231,-1.2584655191458698,-33.751461374619474,-22.43913971448921,28.69625038594005
9220.0,6.446666149541085,15.677869652843972,3.407738827995461,34.95280396446539,14.971814958675663,7.978300421429344
9240.0,-3.721244098282315,2.5019918556265996,-1.5809251972537797,-31.797042546305097,6.219448261435711,-25.29997623514345
9260.0,1.0511189575993656,12.149965554768908,-3.5429321433239056,25.165229220329927,-17.565404738713603,-14.908839898278403
9280.0,0.9975091511676051,9.411344784114275,5.315453397511903,-16.500858729144326,24.53517227193883,21.867474992649363
9300.0,-1.7685458513402965,11.503696043264194,-1.1506412498351004,2.24105486257327,-18.435114727269685,13.055075007166096
9320.0,1.0945713825662295,9.851831331775285,-1.3147850149087474,9.26827031635763,2.196667583443504,-21.953767624588544
9340.0,-0.6069665391812332,4.5919037392438,0.3375281547037343,-21.75757047234321,19.2327587346905,-26.323588601004335
9360.0,0.6053224544757199,16.025911628803406,-2.2380077982643676,29.844809084865172,-26.038912522116657,16.61068647674377
9380.0,-1.8489845386089163,6.8182834896409625,4.587456810114452,-35.97537497443958,19.05064765396781,23.599943226248396
9400.0,4.3426206857525,13.16315899656083,-1.5553574962139605,35.60777195156668,-4.517364875801572,-12.858520360752504
9420.0,-5.860265714821286,3.2872643170368163,-3.873617446285806,-30.88363641405556,-18.622659317283123,-27.873425600192455
9440.0,5.729996592387257,13.68911918838334,4.336520768499339,21.803209543248112,26.522968368529522,8.432010808910814
9460.0,-3.12071413704689,10.994414527009955,-0.9023062818863817,-9.100637724738858,-17.36385133172751,29.01038716795988
9480.0,0.018646511750507,8.69336830155409,0.6191126995475236,-9.209782846804575,2.2700458735149995,-9.923935840424726
9500.0,3.767914136749597,9.627505972571521,0.3528696098654278,13.820472896909052,12.181745542625958,-28.512655933892212
9520.0,-6.411371977953812,6.09482838410638,-3.110813919589508,-28.025176110071417,-24.170142994726262,3.031510409251304
9540.0,6.872420585502491,16.955888117198693,4.60735984128127,31.574151101742686,24.88176050202481,28.94571320459259
9560.0,-5.508855000863495,4.934920169726757,-1.3917017080491623,-35.709043877764,-4.985985452970517,0.9550112025346819
9580.0,2.6601747934965534,11.874805282070701,-3.7051205056475593,32.635712578686075,-11.497693006270413,-29.897989546617048
9600.0,-0.4710751922903448,6.095392230385797,3.14249257230037,-22.697296874538992,23.78036006119052,-2.9645412948715766
9620.0,-0.99032536694144,14.230574483165322,-1.4639433214117745,12.372719384784265,-20.027898932544637,27.246230661842667
9640.0,0.9361684561712367,10.780705169256127,1.779759045634745,-3.4871033829516174,10.21800501759137,11.623934726177358
9660.0,-0.5082577270388298,5.836910562050598,-0.6486919443731252,-11.348876274753346,10.264014129128867,-27.401127270648924
9680.0,0.3638596326287645,12.046726422910993,-4.508889051561865,22.571235144836148,-22.20047886310801,-12.972031752106309
9700.0,-1.1566718774595521,7.230289815353421,5.221576133015821,-27.834140780896455,22.376791270898494,22.41797096432633
9720.0,3.256584710938374,16.37580634065873,-0.5809872536820678,35.709598150166435,-13.590510766379468,12.87107952822513
9740.0,-5.382439580334953,3.028408612814898,-2.70426580192572,-34.92436815287053,-10.313018304748848,-23.268253787821244
9760.0,6.044653842294014,12.119417707960615,1.7568090444270488,27.192345270540052,20.900585688632074,-20.52867196938215
9780.0,-5.471258599926995,8.637493122900235,-1.9798462670356367,-15.965397744657965,-21.40904663667844,20.718922488714846
9800.0,2.660766223506816,12.89524298250586,3.5042251672859086,5.209872474130564,9.614365609943805,25.82032139078612
9820.0,1.0468068838286284,9.286932002692533,-0.4523627778222596,5.702851493082087,5.569325153839009,-18.243804389405998
9840.0,-4.965118258926858,4.7377070096629375,-4.378152007142369,-16.774988360573946,-17.575998891084595,-27.71921204609972
9860.0,6.515299392460041,15.033888751604398,4.1816300980040255,26.134385934772222,28.581868457394847,14.16847806214209
9880.0,-6.347030289829362,7.63598847315559,-0.4295515963387653,-32.64343512694658,-16.621478104896596,27.489213197000243
9900.0,4.258070407032354,13.966288379910864,-1.0617362313890317,34.9063221027208,-2.39820686308187,-6.806658241522824
9920.0,-1.7893735201988354,2.7234720261053984,0.2692732971254559,-29.436387184751062,16.58070158939146,-27.01261749211055
9940.0,0.06679131565626441,13.468554519952999,-3.1348255519880603,20.708329582978983,-23.18116028179454,4.076500306618761
9960.0,0.47544488823103165,10.343085647293762,4.300765488190817,-14.21162353130521,19.12998494553772,30.81044628378895
9980.0,0.1730585886503925,9.76863161982692,-0.0077739549248393705,0.16925158835560272,1.54771260631964,-1.0769356528400362
