timestamp,ax,ay,az,gx,gy,gz
0.0,0.06535948677918722,9.696118830243233,-0.2055737886847692,-0.8694852253647166,-0.13252293269307158,-2.4499020657926467
20.0,-0.5492826615572488,9.32586261261004,-4.467900071185135,13.057921453421182,-15.416998515475157,-30.147408878423718
40.0,0.0389971794374233,6.2781761737536055,3.3400972322122007,-26.50691155774523,25.07825000477475,-5.2789925159098825
60.0,2.0564538998865136,16.737882570116724,-0.7668317928584072,32.69953515705046,-16.191472938548685,30.671915520016647
80.0,-4.244089433500007,5.85021919412472,1.1381431066272487,-33.30425342001788,3.901043378955295,7.961933295499467
100.0,5.941292955783782,12.228506992568745,-0.015193361124293592,33.806581524855275,15.992775197165749,-27.413404114881914
120.0,-6.918621624700959,4.388380983432469,-4.193686139802865,-27.420394589445042,-24.95952909740716,-9.206319901292119
140.0,4.933167823859003,14.553914557949682,4.978536259645596,16.41540257244327,21.94941226927434,23.27692452177626
160.0,-1.3278652550277366,10.3149652346678,0.5497595573750993,-6.129298297589678,-6.202362969907769,13.639460539713289
180.0,-2.283543057464665,7.098259213712145,-3.7053783932408577,-9.351588128120996,-12.874171308049895,-22.703749887202363
200.0,5.4151425348590685,10.322156475871447,2.0650950433172492,19.69681429532713,23.93450162801966,-21.61536975444377
220.0,-6.560151049049302,7.8608774080574,-1.4536730528986876,-29.455815578168927,-22.613855154410878,20.497941176761096
240.0,5.046526454071068,16.83963117678086,2.557767650437464,30.77352721767929,9.090088992346521,23.2326046313408
260.0,-3.1022663686451346,3.3948901944473993,0.37165514451220866,-34.252729914560035,10.344157741216884,-17.296521615306766
280.0,1.1203406379539984,12.550015945829694,-4.818286103765668,34.34583992167834,-24.64747923394464,-24.85629491238335
300.0,-0.03162320132263696,7.7500908013565875,4.102749497913496,-23.7393930818256,24.577738641076937,13.197537596077916
320.0,0.759143856962478,13.603369302200544,0.4161184183839696,10.472001113158438,-6.5884729996967275,30.43715629655931
340.0,-0.7760632516054953,9.079878611845304,-1.8249172929653623,-2.1258840653685134,-9.733281570791236,-8.046195232903173
360.0,1.204599306480394,5.680037087480276,1.0875429544544615,-11.437413892180258,25.363708599885403,-31.016019861198878
380.0,0.4530456341932507,13.69435785033214,-2.9872542714661185,23.187071296715427,-21.763435316254643,5.563401916290137
400.0,-2.985868813557844,7.998420632947837,3.72534455144718,-30.975020301608424,18.113687671199365,29.539085647489596
420.0,5.801267332434957,14.646918669253395,1.12561223074307,36.81254021365631,9.412684819942712,-1.781641755205548
440.0,-6.655629223858365,2.491502150646055,-5.142065483762779,-32.71101870678522,-21.534703644372982,-30.243036255375415
460.0,6.475604497398402,13.298461662296246,3.4244302690833375,27.01684403633771,21.514862696444688,-2.5323206708213157
480.0,-3.61965084569921,10.027672128708629,0.2125194825687568,-21.064611606287336,-13.338700937905761,29.948100391561347
500.0,-0.5546963906935907,11.223920113298886,-0.2857416644334689,4.674855540506845,-5.3982646554041365,10.027046054454637
520.0,3.6217708800362347,8.616366446312638,1.4013805119900036,5.069713934205486,20.028063820933156,-28.869960817466925
540.0,-5.704411106485425,6.351890843000993,-4.668095094584868,-24.36441152428187,-24.06592856016897,-10.736984626977565
560.0,5.403438752753891,16.228444644055106,3.714570197568784,29.981997877932642,14.36393099601422,32.34867346060767
580.0,-4.283202025304933,6.505780446735088,1.1569355628065936,-35.226300196147,4.164617117478199,14.33363072623268
600.0,2.209439369554743,12.53664523641374,-4.2316504112864886,36.064970203556506,-19.49831045342348,-27.949586483082033
620.0,-0.8801375440998096,4.063166483425224,2.398016012059257,-34.921711302184924,25.492017520479962,-19.83959304583564
640.0,0.6817068103832187,14.930988075565326,-1.200429749001079,19.64537359902352,-17.180458857357777,21.481681223250284
660.0,-1.2334621114303819,10.040799898397252,1.5175310387831544,-11.654730401891609,2.9036010216199184,23.8901621805742
680.0,2.046314134224277,7.655559557482018,1.2757080072075808,-2.6780447667320684,16.896717776199516,-19.139171977315765
700.0,-1.1343402760051564,9.792753896315586,-5.269609773405013,10.404459021027657,-27.080413707832818,-25.894937719311883
720.0,-0.8422661202162565,7.606812013399387,3.7626472276173137,-27.013510494799853,19.117070723581172,12.248169135260365
740.0,4.015639729263172,16.488190749848883,1.5700565237304156,29.930004147773364,-4.337628956700872,31.109229000547042
760.0,-6.024644895239373,4.004496637272166,-2.3428227837603663,-34.515998041076706,-12.837792581400647,-13.351056395503544
780.0,7.157878573498018,12.088679558044076,1.6157141442004184,33.81522938822032,27.094713047908847,-26.959440447135986
800.0,-5.643104530524737,6.44216825551573,-2.5603726356339047,-27.046371155322277,-17.481048307533573,6.812863416952556
820.0,2.516089307759236,14.060385096350105,2.689510400817241,14.003420722280929,4.277704557319626,29.95488437027873
840.0,1.334353279808872,9.189353129001264,1.9395207772280743,-5.2052874677203285,12.559430021651838,-3.1853168536334255
860.0,-4.156998533480788,6.041935522379344,-5.424608541509115,-10.416999246838795,-26.734033907737874,-30.923583909743478
880.0,5.244389731929508,13.069071336863635,3.396158953762975,21.469697010196615,23.339035323861836,-2.9190728915232307
900.0,-4.962601748718551,7.868065041282533,1.0931937803622023,-32.37523048149649,-6.943439026088815,30.551457994244103
920.0,2.854474214498813,15.0459129269504,-1.4286168784309512,32.486998525069566,-11.961970862062342,7.080583753573408
940.0,-1.548677138750157,2.3489210483927496,1.3681560663817962,-33.12777767691525,27.463547100763044,-30.312504359148818
960.0,1.343752369747172,13.224062575860106,-4.179919033077377,33.42771587520447,-23.80599049948739,-9.150215057914345
980.0,-1.6201040939047886,9.188097429883582,3.476404242335594,-21.52487687477735,9.321916390808285,25.92092206992688
1000.0,2.514355226571781,12.04440304752222,2.148448740063716,6.621445772826169,8.785264583719973,14.31463144140807
1020.0,-2.335850093030597,8.45004523203412,-4.9549227299911385,4.085723939106158,-22.559558529788234,-28.20916337058731
1040.0,0.7347702186826706,6.389317922937951,2.034708583072402,-15.402290827990123,21.88674768970933,-17.429815361149185
1060.0,2.359226429478945,15.606683471546036,-0.02255617850244908,24.584869969430336,-11.487515554494879,18.233981853593363
1080.0,-5.199766822790331,6.945886334149823,0.5026888518211641,-29.595475549418076,-4.7685442155383155,21.397456404943476
1100.0,7.215727980598517,13.14082334973645,1.5059010001652293,35.42981940055656,21.19736178531926,-25.518246221013104
1120.0,-6.878316683991107,3.1383032487486604,-5.1707582168386885,-34.677556594418014,-25.761510253073478,-23.212965679645684
1140.0,4.932681601852213,15.098081241952539,2.9439658118436722,26.328659087057797,8.873094650973766,17.63417448419221
1160.0,-1.6145570011795125,9.841667977721185,2.449579718405369,-15.924307411057327,4.175981130954259,23.286069943994427
1180.0,-1.7280114264645476,8.74959729773956,-3.7290239583529114,1.896012889635877,-22.785342921123608,-13.858266314599161
1200.0,4.39691609748136,9.168203402713612,1.6042351850149579,13.736789206094219,23.837440772506678,-27.99313145042408
1220.0,-4.527319905620195,7.491794704429691,-1.6728344051197153,-24.717272460021004,-17.663885028837235,9.442965407367693
1240.0,3.3296782751139333,16.409792413702387,1.7398058553222937,29.37459141007786,-2.086694669703263,29.271948462705616
1260.0,-2.1302531221770686,4.415476835945823,2.341247203003453,-38.119903811651675,19.31953650446088,-0.32062773026907365
1280.0,1.3229529641709374,12.23845479672685,-5.489159808237553,32.91442351599583,-25.124891143748144,-27.191593772169984
1300.0,-1.7016490027735354,5.520869352861283,2.3143708308748363,-30.063419607217398,16.461097261387344,2.781188471122693
1320.0,2.7910877531526403,14.960393101397543,1.9056442806032026,20.88491211435856,0.680704654175103,31.375942363200434
1340.0,-2.8693576974646327,8.716187317553704,-1.918683704333239,-5.87998117998271,-12.905018188516905,3.620851009165486
1360.0,2.395607572721858,6.66399951519643,1.362278057536508,-4.123370654183322,28.066943351678887,-30.88325609575288
1380.0,-0.4868793418532893,11.270746186667994,-3.283150390417873,14.771531307066983,-19.25191623521843,-6.163700803917861
1400.0,-3.0336397920141875,8.148141343517302,2.2047389131074704,-28.369258968367944,1.2647662317460213,29.37414283805494
1420.0,5.890641982732484,15.739660617272454,3.1937538131538465,33.67838874734494,15.566099905603235,9.67210022778851
1440.0,-7.54724715219495,2.7814923524756767,-5.319649732057874,-34.94081249433326,-26.085156393924905,-27.299618957161165
1460.0,6.483457827147136,13.003310559309975,1.6247806117470116,32.58476749982199,18.582584615665244,-15.818289334288862
1480.0,-3.5498240247844834,8.310078333050289,1.3316149611933412,-23.515455793368634,-3.2892901529459744,20.107622359863388
1500.0,0.03146906366299357,13.279106134690604,-0.865144207087433,12.024183199432803,-15.529248300644689,20.21749119145197
1520.0,2.5539381462058683,7.963024781644703,2.308883798278631,-0.12955130645443913,23.896283560413053,-19.843280560777824
1540.0,-3.932568362368059,6.152151135759606,-4.6566361650060495,-11.336594599379966,-21.49642912589009,-23.16886795959648
1560.0,4.035512527823606,14.253861196091925,1.5693237851705564,23.078927008288254,7.317533447286062,16.754295573094502
1580.0,-2.614016056794696,7.653075756307675,3.31896861362733,-35.67016434396042,13.630637245182767,22.90466326975819
1600.0,1.66979091140052,13.60795164346999,-4.679643321442417,36.715294179317404,-22.861157978564847,-11.990719539545648
1620.0,-1.7481103386243286,2.620351032904239,1.3582314131327955,-33.28454976126248,24.321736049838428,-29.17551381807064
1640.0,3.02972837523539,14.719644143476373,-0.4296688907741253,28.783885516017136,-8.838247578015313,9.99033218483679
1660.0,-3.7327379668438345,9.63381880838568,0.266952578596229,-23.609146707095395,-6.273959038843519,28.48986166814636
1680.0,3.5126968183110097,10.167412289540277,2.7194040670055974,9.154090330569526,27.86977356155884,-1.6303805566497491
1700.0,-1.8538982704493248,8.297172733787281,-5.375792638443613,5.374031630810431,-26.672440300271774,-32.283868621971585
1720.0,-1.0328180892533492,7.5972827764038495,1.520939513927797,-13.710862883732743,12.248584887967965,1.06343386436837
1740.0,4.570044825187097,16.17296384329689,3.1844898092273874,28.937721673951664,7.101602000710949,27.757683128008615
1760.0,-7.153488001412779,4.985330385400654,-3.29542998720812,-27.6973366796974,-24.9007245071837,2.8617387631193023
1780.0,7.637793816238895,12.155977734133886,1.2512844251237878,38.03216229641798,22.400815023100673,-27.090913399468167
1800.0,-5.910391277869956,4.858970270347905,-2.4702910614407645,-35.22030790916887,-13.259755188193509,-10.272101338669756
1820.0,2.636105388217261,15.674220885268605,0.8340241403197564,22.966874306331945,-4.543879499594883,31.043305655104376
1840.0,0.2568851164603001,8.936287004495831,3.8153473417319956,-12.523379629917128,18.901608738616137,10.681892990641222
1860.0,-3.1984336468422883,7.669894352806399,-5.262830032975764,2.637684166709199,-26.68652219517127,-28.030345970818402
1880.0,3.362251014414489,10.228122549422663,1.0600334068147246,11.632647082315701,15.572024336774739,-13.296257129530884
1900.0,-2.761531559092428,8.586668629763864,1.6948583358068163,-23.203176215496228,4.102386857694688,26.976828438028168
1920.0,1.8073297277999592,15.54141553628421,-1.2776867559551361,31.8839487222633,-17.752191090448704,17.686136509487394
1940.0,-1.5664771571539833,2.9463599808211325,2.2061879530204602,-34.45314610703451,21.77099036266665,-23.84596682698668
1960.0,2.186946038747567,12.82304078764291,-3.822799200263132,35.09417434255158,-17.62097961715471,-20.740073242141534
1980.0,-3.412013300431813,6.973772204879224,0.89074373988172,-29.57115854044357,-1.6278227351349772,17.991900190917782
2000.0,4.287777804954805,14.314600034938232,3.6785154477158484,17.709902315641873,14.929342371283234,24.125871805964092
2020.0,-3.723463092654915,7.837037574781948,-4.696493358929012,-5.964430959821462,-25.371320500952454,-16.456189716185467
2040.0,1.4285925080427255,6.570956343287309,0.5381469119641682,-6.970794697815581,19.808080258089632,-30.961296937887543
2060.0,2.3642480983209118,13.253698050543697,0.5120867645429215,19.58185676077614,-1.358419150560378,12.214502082214766
2080.0,-5.221972986069139,8.370312652610933,-0.29934500248024204,-28.788772231044803,-16.21255905986717,26.2758875055695
2100.0,7.382055541857781,13.955375373472242,3.214890750347153,34.02941755197495,25.510985457120942,-6.601516782302012
2120.0,-6.9078909732483424,1.9996847060145488,-4.763535075168093,-32.995237732683854,-24.321930584288662,-28.6434160388965
2140.0,4.4105427487234845,14.468422462003291,0.6916562167182392,32.48603646173183,9.52060454621754,1.4364175948881068
2160.0,-1.4169080219994856,8.861206074390289,3.570021760300751,-23.459716736922566,12.838994486451401,29.629625896325457
2180.0,-1.3066872478093254,11.553767877336753,-3.535438924635154,7.793586696441842,-23.744986744392428,0.33479729504384437
2200.0,2.773383265054548,7.668558700573313,0.9437782446210063,-3.405689757693043,19.760080929812837,-29.7501092422084
2220.0,-2.223270676725577,7.082217932951647,-0.9881426775625615,-11.097582707075816,-10.151799733390192,-3.897200299347993
2240.0,1.8197510021456953,15.697340339782741,0.18898844318861585,21.803034888560553,-14.000301004029778,32.67545679340197
2260.0,-1.4346207736008632,5.652769798182325,3.8229632189511933,-31.815274767020178,21.245371769574778,8.395364774148979
2280.0,1.7890199214246685,12.68187066401375,-5.072810872972709,35.94883728107809,-20.541787724517803,-27.001403584322425
2300.0,-3.364321197021212,3.9726316417821708,0.14605663344089914,-31.958219223534194,7.901510687528733,-12.834078087461545
2320.0,4.511374491120878,15.97503778012278,3.2445753701880578,24.783953721178094,10.617308653356258,28.312163438087726
2340.0,-5.045113345155232,8.89217900254628,-2.070713754470143,-18.748392979720744,-21.092385757084724,16.06523780565361
2360.0,3.4790264118502168,8.645425654261569,1.7244857792793755,6.141659422408247,23.70607719898826,-23.49016794119702
2380.0,-0.12810026726328771,9.09305092629411,-2.878177426346333,8.51284711949837,-9.235772796399564,-15.875079232809234
2400.0,-3.5002971937363228,8.603562049508783,0.2652539631137796,-20.839029845308893,-5.240136100429858,18.449022053881166
2420.0,6.557762526152832,16.037697348445825,4.724858392836676,24.45482438090995,21.286729330311957,24.408878384605053
2440.0,-7.453286351985353,3.322993293928109,-4.41349651131769,-30.282268938253885,-23.932178414012526,-17.489176174382735
2460.0,6.059012319259772,12.321278597026541,-0.03952377422812245,37.16341325469792,14.471316170938955,-26.364205699751942
2480.0,-3.3098297763990017,6.631868914813777,1.8681695546839419,-31.472798668447403,4.435431212337169,9.170323094970072
2500.0,0.24717131239025852,15.556806634692293,-1.0209141480860693,24.879689040555178,-18.61310935192536,26.071294298265244
2520.0,1.579898625710821,7.455062934386373,2.98990870505213,-10.478682517803017,24.747800631104987,-13.349616826408859
2540.0,-1.8331773498170394,6.7403499463443435,-4.2519508816907035,-1.4382849964433404,-14.819786559224623,-26.45764982645178
2560.0,1.524258346885177,12.719194292712565,0.07745355432603435,16.552890899135118,-2.46142813237137,6.20664799354883
2580.0,-1.283236474970349,8.926410016974282,4.612132564064947,-25.479550618189723,15.32177779958683,27.553747194513175
2600.0,1.178075304925818,14.193429871538555,-3.265326731474362,32.10464938516643,-24.85385723589458,1.1246591083709907
2620.0,-2.8831247690443935,2.262717052391869,0.560323005139352,-37.95695255205071,14.553272182881841,-27.33146298194691
2640.0,4.306815077898433,14.261080594037733,-0.022783647103647553,35.29802907784675,2.7522021153823575,-5.844012511801602
2660.0,-5.679273031234888,8.462877641001622,-0.6514593983605117,-22.612966238232662,-19.366237676254855,28.648090893362014
2680.0,5.05133673223595,12.97669796456309,4.082355198692483,17.404633477823424,23.347355653453917,11.026110732352535
2700.0,-2.789367128312618,7.2047963066728835,-4.605983928016436,-4.960394018692944,-18.020095561306693,-29.26046719419815
2720.0,-0.6842406744665115,7.550942502635781,-0.2834280599857986,-8.50248746058374,3.5169765393469126,-12.335773790767014
2740.0,4.503871487465651,15.184619779647708,4.032648817953723,23.017717134178408,14.796002736372941,26.092595827163276
2760.0,-6.847557244031066,7.061171945003879,-2.5833791810308826,-29.31849344206218,-26.57821059549417,14.636171399047372
2780.0,6.640922010444991,12.397361835901354,1.2095499111817325,30.890859666840488,17.668532442947313,-24.297793086832577
2800.0,-5.202525044722286,3.2512784346686354,-1.8916551568846685,-33.75829950243506,-6.337343612817129,-20.92449992578219
2820.0,2.1828058622620508,16.164507163705085,-0.512657349968325,29.718758060137347,-12.709561531840778,20.191912084084922
2840.0,0.40301464759090605,8.380047196834555,4.953331713960853,-23.36705256588072,20.82941224963743,21.838918439121343
2860.0,-1.7688164386601524,9.774882337885836,-3.8877831596624532,14.005550063318386,-20.838947644728403,-19.66290269534399
2880.0,1.0515492674001912,7.991430945835047,-0.629047426436619,4.745129835658146,3.382803242560313,-27.632609054152034
2900.0,-0.7940724659622908,8.615123127349067,2.6899925434740215,-15.308637209932925,13.660644619756319,13.395833763471993
2920.0,0.5382298022099669,15.946845704971661,-1.8133130582190424,24.52308264597252,-25.228012487224063,26.249127580794315
2940.0,-1.7609027889636666,4.3513209540419915,2.838664388110033,-32.95548115936347,23.844459601717773,-10.1448098092621
2960.0,3.5246374920233543,12.300007773954409,-2.8437246338064184,33.96311673205602,-8.574613343286666,-24.24461556715279
2980.0,-5.3397073992426245,5.5829180635583375,-1.085239334700134,-32.41880194439269,-12.624874375249572,7.507940496440513
3000.0,6.0600737202355575,15.723408464710376,5.243843898667593,25.506491293010782,21.334837670714986,27.06066608203768
3020.0,-4.866451690424455,7.243535306644455,-3.74193077021744,-15.054291733641849,-21.56909455314861,-3.9449499650286253
3040.0,1.6816575988619906,7.8307944077523555,-0.4797381542908323,4.32666824993619,11.672961184906164,-29.20490213864987
3060.0,2.0826805158422306,10.855820262341247,0.9814694406313587,11.32846151780707,9.253727273144074,-2.7517815316376475
3080.0,-5.182496201871932,9.215722708650686,-0.9349599373433117,-20.654399897434796,-22.645961888985504,28.88330553913302
3100.0,7.044385590588644,14.761093040284782,3.6276851182698855,32.69450065497291,21.592688027574564,3.39336917674994
3120.0,-6.201138416761435,2.260393486044262,-3.6040197027650187,-29.736043995338555,-13.648973012933693,-31.62281665614755
3140.0,3.6775311113549267,13.622180845848234,-1.7187468946664732,33.95843086772194,-7.27690936700276,-10.957278601045148
3160.0,-1.5922796332594011,7.8724097506646205,4.5875620061000575,-30.392666605398396,21.10251539102069,27.576903704241378
3180.0,-0.29682433243745365,13.72240777601021,-2.4276070684996545,21.835714576022728,-25.039205430407325,14.974352981869878
3200.0,0.8157748771884634,6.637550413285912,0.5028314039126625,-10.074912469875589,18.80953616388028,-23.09675382716749
3220.0,0.20302484845031976,7.9260825448419645,-0.9933536087599553,-2.3390518098016275,1.7615905000665435,-13.819439342065753
3240.0,-0.06334490141948565,13.779924868459357,-1.4377250496538123,18.31886959249154,-20.723666359997218,21.608049198585373
3260.0,-0.47902305479815444,7.948699232745978,4.656038763358749,-28.54510548652365,25.67139480688588,24.621780679461367
3280.0,2.124325803620878,12.657317174733848,-3.413713831916338,34.04698247263767,-13.127667689727083,-14.19533735687639
3300.0,-4.557707991464396,2.4429937263098083,-1.8841330884360394,-31.865023481652532,-0.7243975454812372,-22.9253904506521
3320.0,5.985835347972789,15.935677513797165,3.7736525450141643,31.78865006361928,17.72984298553415,13.204516068121535
3340.0,-6.014725941156193,8.131169716535988,-2.0304082942060777,-22.006678699822128,-23.541406994145035,27.77487299670191
3360.0,4.288688688856803,11.035432481392666,1.8827614234216157,11.086193861669976,18.660474409860534,-13.861002895372215
3380.0,-0.6450534416201807,7.414508523898454,-2.3634774401064296,0.9579738421997577,-0.6643545977743721,-27.319127628905203
3400.0,-2.8836235673285238,8.80492331173218,-1.59804857362088,-13.117480625757793,-15.631838347370335,8.552409145049104
3420.0,5.675174272455013,15.515331542832762,5.35731346711593,18.817833482504426,22.849437438918407,30.583554436052403
3440.0,-6.186405102361437,4.9412689058697925,-3.3214980948569215,-27.071506639170064,-20.642525634605995,-1.7647922425560207
3460.0,4.836662004225349,12.221853483631158,-1.4378886231298365,35.497587469362465,3.7170630998434016,-31.823788107051445
3480.0,-2.711169162499625,4.950000548858014,2.060710794386812,-32.54028782231525,14.474541785850283,-1.311406341502678
3500.0,0.7552011908619576,16.639146897677367,-1.4993567321505503,27.462314722275757,-26.48862701428723,29.520733864510618
3520.0,0.04882676097862631,7.330860522098885,3.5447811220268615,-20.455067075217833,22.5497599857976,3.5019049497423516
3540.0,0.5076262790345751,8.528751911310527,-2.6610631693232825,11.04649398921288,-7.158843575050604,-31.306607653600082
3560.0,-0.46101024386354483,9.75547121765557,-2.318902870983918,4.9607593804441645,-12.29025158984292,-8.024158431203057
3580.0,0.7490232175451174,9.546195046182884,5.201414001858216,-15.258571565240901,23.045622822437497,25.13645931034033
3600.0,0.42066236641898397,14.698840262917763,-2.4416523652366475,24.193049610297287,-24.094852474766853,11.44086581035928
3620.0,-3.51829188539832,3.029548535722326,-0.4448426443403718,-34.038356146430154,7.7374285969473116,-23.76279151199049
3640.0,5.592776340347511,13.675751296430086,0.3875896273831463,34.07435400553201,12.85762368379489,-16.923895235989324
3660.0,-6.786120241284512,7.409787689952334,-1.6670915865216522,-35.555195330429335,-21.92913930911388,25.908343664895764
3680.0,6.228117554008347,15.561394682064183,4.839587059738181,21.38948708769604,22.65727103059288,23.374440957807145
3700.0,-3.1197502504309687,6.130606288553334,-2.635550678801339,-13.53586552589338,-10.725510368909779,-21.169227720750506
3720.0,-1.1886629570123535,7.754810541864053,-2.431039285804444,3.679569528174671,-8.721634061481875,-23.94512768091618
3740.0,4.3396361378815405,12.824162533415455,4.036632665534631,11.048534600914262,22.844516740440206,17.503867481721052
3760.0,-6.080692641030754,8.433126896135567,-1.8988538085685254,-20.312768276768914,-24.442201094174873,24.652712484290635
3780.0,5.489149126707231,13.050142951833312,0.7086951993974564,28.83776879146494,14.034347457459862,-14.893806570250055
3800.0,-3.758359434096453,2.441024878063193,-0.8625636353898297,-36.64295437446872,4.288355615333787,-28.98199427681312
3820.0,1.4197774428425873,15.502461893739547,-2.1771734745683196,37.74835831391784,-22.450314277500052,9.454482115378108
3840.0,-0.6386426236571042,8.260927361828038,5.443780860813407,-26.374496456039672,27.32531269686929,29.336952529307965
3860.0,0.6099054286374516,11.895041493033707,-2.368224994504228,17.944505715204734,-11.65585667740987,-5.184851428909161
3880.0,-1.2864787379920442,6.360254797309022,-2.0740518332666324,-6.862819277059336,-1.7303326617150474,-31.08766728015122
3900.0,1.481492755272365,9.006031687694966,2.6356589530921366,-8.442234348266714,20.078910844018072,-0.5181791480506394
3920.0,-0.7517588213171222,15.238696514953379,-1.640789495300482,21.2244802953697,-22.56111352898887,28.78738957713197
3940.0,-1.2425584379077963,6.149125163309006,2.7621789378989243,-28.9709605337816,20.902001541845888,2.399540423527506
3960.0,4.4130646165623375,12.079197191201546,-1.7709451947719694,33.14029957978274,-1.6100907246934726,-25.25070293271317
3980.0,-6.618311111743273,4.341938568113227,-3.0385941012136337,-37.240399941599435,-16.821924319993002,-10.09722099741103
4000.0,7.261130908474849,16.54836915667856,5.203303014354813,30.62887473348506,24.554842417031043,29.579358804047207
4020.0,-5.09793387929897,7.432881449472506,-1.8654381608597617,-26.038837808638444,-15.644222417591688,13.430934496410016
4040.0,1.5453946018324713,9.262106935055362,-1.538906569413439,12.03881055103554,3.3096917053222223,-26.356227690988288
4060.0,1.5216198819623317,8.84957947016592,1.4413096939357153,-3.806403423980781,19.890796419325696,-18.053063877217376
4080.0,-4.73352505900963,9.988932434533213,-1.746751533496024,-10.789253427558528,-26.53441977477978,21.419772218340796
4100.0,5.767446931834284,15.18680231716379,4.104167767698426,25.03776913707278,17.90462624306902,19.265220699829694
4120.0,-4.576672194614231,3.8420260156160078,-2.3890778540852367,-32.657228401205586,-5.050448317324586,-20.407068094473363
4140.0,2.927489715676526,13.025874126281478,-3.3009238369433618,35.500447751782296,-16.60854095450069,-22.748437975682798
4160.0,-1.1275578585887227,6.373117608688691,4.657379977769711,-34.48392996702439,24.675520114614493,18.044111341804562
4180.0,0.9602023554560646,15.834656053563723,-1.2100295724167098,27.57721731870633,-18.570714648344605,27.382464990705014
4200.0,-1.594235768265399,5.701119085913884,0.07022914879002512,-17.855958741809914,2.6541564084896203,-16.772696783864305
4220.0,1.8441458248531837,8.310112208484224,0.4124847334173499,6.7619010115941,13.546646691119609,-28.41364432617688
4240.0,-2.004377257838281,11.966887499656908,-2.565788857243986,8.98538685773695,-20.653253922706284,7.532006431185007
4260.0,0.4991650482062055,9.618152497353933,5.172441373714832,-18.69576370308587,22.41438473424489,30.835819139593596
4280.0,2.9404570449364735,13.593968608555043,-1.6485875472104934,26.820720768017065,-7.524873218281059,-6.7006855267320775
4300.0,-5.696358555611664,2.657418217530532,-3.2271668995790694,-34.6491871089239,-9.248834442789256,-29.201916926895603
4320.0,7.280521457028786,15.043214471484506,3.386847779905724,32.472661766064654,25.028832757797584,1.9877829179770337
4340.0,-6.815765442717134,7.990403834678787,-1.3413707935135017,-31.519325080293566,-22.961905587668067,28.930632920201898
4360.0,3.9730507568187994,13.247296058660831,1.4091000622575782,18.807219246926575,11.32358840769848,2.124538369885928
4380.0,-0.3138663667548668,5.789081097364754,-1.2212514079834442,-11.188215514343142,6.2205442244439135,-28.66843526253825
4400.0,-2.8190105009289277,9.202071683282897,-3.584267776856437,-1.3165017630878413,-24.942297392672174,-7.200072663672367
4420.0,4.385279056397131,14.084116604734092,5.0009485165573695,11.729506978686237,25.607643130165155,25.92484328908876
4440.0,-4.54555256167232,7.023416525917027,-1.0093844646788093,-24.504148376119396,-12.939285825108136,8.168864421627543
4460.0,3.416439844380836,11.875942251835246,-2.7722266049508266,33.86817962244526,-5.999616945389439,-28.569697213577875
4480.0,-2.3290757503639297,3.2402304017741614,1.9895339910567742,-34.31108574446925,22.36434832440524,-15.54001198565375
4500.0,1.2991754540183809,16.54319995642451,-1.579532025762796,33.700561980922,-24.77862636555468,25.52203348481011
4520.0,-1.701286689850146,7.770200956331355,3.229942601125967,-23.233673445462294,17.01325625666111,19.39446285170983
4540.0,2.559838737036646,10.172353520120925,-0.8166054106636393,16.170902195455152,2.775370642819984,-21.395305503375024
4560.0,-2.9098985846195284,7.420742998830587,-4.177692758028167,-3.526293977006648,-20.496631135281927,-18.01847293940641
4580.0,2.095276109315595,10.348491761299899,4.5300470443235605,-8.143442098143437,27.825017562981227,17.104258787255343
4600.0,0.6106051019051126,14.972209284210539,-1.2273753743339961,17.864566331922237,-18.406784966119353,21.54548987266204
4620.0,-4.111675788250491,4.159874196998726,-1.1301761294659487,-28.047931915678188,-3.0628115934626625,-13.703295165274444
4640.0,6.766224797590894,12.497504791466374,0.952296366135872,31.084558038380806,19.7188347086465,-21.081229218380862
4660.0,-7.18868159918766,5.7560076761751455,-2.4971527453797604,-37.10498700875179,-23.21052104931346,10.850032512439789
4680.0,6.0445725133855595,16.36190475681396,4.3618384792538345,30.11660955497126,20.410446853510035,24.87040325396913
4700.0,-2.834478527028718,6.333665747704713,-0.6520698877196142,-19.553966306680493,0.241431171527122,-6.495235125593055
4720.0,-0.43099886227394146,8.939499024729194,-4.088185949126253,13.835589322590733,-11.045339769463844,-31.719860892091603
4740.0,3.511805312731365,10.248428847061978,3.67605445621243,0.718490676794107,22.732988418192946,4.737343906964172
4760.0,-4.345831438435239,10.134747627118054,-0.6942131057108246,-14.27785118300762,-20.986082186922243,27.699193551622162
4780.0,3.660789937434233,13.72288368741325,0.6999300159204599,23.852184530806245,0.4488983051783215,-1.6236449693671968
4800.0,-2.571213923678217,2.46512876185638,-0.26568085666063235,-29.99378185531669,17.02631707768088,-29.39876844649584
4820.0,1.1871256337923735,14.395252121181112,-3.98227877393999,36.49086587763249,-25.21458471259675,-1.2867717319212875
4840.0,-1.5439056058305412,7.5151569786895935,4.510116116120908,-33.36289706029132,22.478060577499843,28.903397702904563
4860.0,2.376209365181244,13.963209231299587,-0.020665514192626633,30.003988511311306,-6.551884367764413,7.970655913761253
4880.0,-3.8377228602144635,5.245788012716141,-3.433207044638168,-15.092968038914863,-11.48570339035139,-25.878190516855312
4900.0,3.5938651673234094,9.499035885875065,2.166343082492132,4.6804891671402284,24.306664117205557,-14.521763528028005
4920.0,-1.430376155835663,13.459501646381048,-1.7664693106807738,9.254793174188013,-21.422093304648378,25.9425709019157
4940.0,-1.6113866487032995,8.49742979549558,2.5243551573687295,-23.772756896663847,8.984866202688064,13.712983486893533
4960.0,5.225122390844578,12.076807241836901,-0.012372062767785214,28.597449976159194,8.62081736545774,-22.736830570402795
4980.0,-7.28048665798051,2.803663885573824,-4.431559320586283,-35.17122323708245,-19.75438186030767,-18.53914315878022
5000.0,6.863743590646544,16.35126898782492,4.667583830614588,33.03768235592938,23.41928436341973,19.738285313485015
5020.0,-4.961567088042308,7.214069115387653,0.2187452676248696,-27.35297531127199,-11.6285650897432,20.48963199587569
5040.0,1.7172685899895046,11.692201821088757,-2.3413945291112084,22.045626076288944,-11.548578021879822,-14.325054430035266
5060.0,1.5619817359887607,6.206762729983476,1.3619155876533289,-6.790235458427344,23.533249787486906,-25.436263901764637
5080.0,-3.3007232424664457,10.278049953359172,-2.7054216563399147,-2.877889412129684,-25.243393363466616,14.782640182275477
5100.0,3.3071290138375553,14.375607931951585,3.5466006616047143,19.495095423836162,12.531014187736417,28.289177602988456
5120.0,-2.624865197493219,5.115829167836108,0.09989676082042746,-23.22628270829292,8.191804726598146,-9.828205422621592
5140.0,1.7032055591046689,12.386559683236637,-4.524384563570615,35.123537847782174,-20.996355423317155,-29.823661528984967
5160.0,-1.6036698416934154,5.432732165272842,3.263649177485397,-38.856063694084945,24.31046046513728,5.195945593278051
5180.0,2.349199164209967,17.268435534656827,0.019781433895970396,30.3407039050068,-13.411970854563195,30.18192691039095
5200.0,-3.7622137863472584,6.545472717471919,-0.6917825346991826,-26.697330442314982,-1.243544307762967,-0.2887488421375853
5220.0,4.471277695186934,9.381201361626031,0.7609625030110184,18.673036386349683,21.798701694295765,-28.94095509714615
5240.0,-3.470103143452938,9.173863564063252,-3.7283867718676467,1.470717866853331,-26.78382908781031,-3.357271590083238
5260.0,0.5269804803705487,10.443547550936678,4.073352250045598,-11.787452329651185,17.180743655166925,30.841465867673552
5280.0,3.330975134915141,13.626803278241185,1.0180397622077462,21.80816444275537,2.189228677734184,12.27122279394165
5300.0,-5.82596643375668,3.1115897440877753,-4.151673560536907,-25.461906206235838,-18.329420171754965,-29.412716773741888
5320.0,7.491045439834144,13.817086723651501,2.7951755025023313,35.352825353185715,22.437878711736882,-17.08555830202641
5340.0,-6.888121714133099,7.278878766633942,-0.7663960983177169,-35.963156063546116,-17.610302212306767,27.57701277324295
5360.0,3.8475252459241527,15.152419065113241,1.065736720187721,30.169840039955073,4.390963474305847,17.34077418642494
5380.0,-0.981665131520288,4.608163224219337,0.47722716604399207,-20.6378486595983,20.672941205836974,-25.59714859083231
5400.0,-1.7712628732839368,8.961888702738865,-5.1091616300126885,5.556684849809004,-27.48403767152168,-20.20626425903853
5420.0,2.725364665304072,11.868883594124805,3.5912807791914583,-0.8366428268617598,20.44136705432703,18.242849620048325
5440.0,-2.6333702688682568,8.838525372750809,0.8666868574147443,-16.61654725264154,-2.1644301567062314,21.576222659284593
5460.0,1.5225450383920063,12.181891595994836,-3.344002131241573,28.372902345161865,-12.043254201629177,-16.728972008265554
5480.0,-1.4123318201686252,3.008055372692956,1.6505941962310593,-31.403603860450698,23.935140573541002,-27.074377711020592
5500.0,1.9905149367551314,15.935142283088553,-2.0581893465422074,36.98382751756227,-20.7195944659496,14.542315294247578
5520.0,-3.0815775453651115,7.657947776245108,2.3710100807698242,-34.82231589652213,7.575224572401616,29.60312538063296
5540.0,4.929127135587478,12.437837945261403,1.334948928400629,29.423337928436503,13.26330454894885,-8.648585293598243
5560.0,-4.570136694367087,5.297352484464711,-5.141773985576238,-17.576218320211506,-23.360908251461154,-26.542651168098633
5580.0,2.573093254002843,10.402207569690297,3.568982417270966,-0.3066920366408161,24.144103456970285,7.202820264464955
5600.0,0.8768556727808641,14.000206276657924,0.8634061069193871,11.71146275508144,-10.269293569850765,30.010732401557977
5620.0,-4.116406329805496,6.424975164419187,-1.6413076511136917,-22.520301898703856,-10.08670262661216,-2.718308269798837
5640.0,7.116135983759698,11.831818785476575,1.2715725725614881,29.894045045656746,22.12949566407258,-30.350471058571443
5660.0,-7.284239290528938,4.439778720005741,-3.250562281793069,-35.79842886023722,-23.136356090076383,-2.832265938959385
5680.0,5.58715802062432,17.177914977260947,3.2508155315133993,33.684017903187964,10.698712009701447,28.25827706805292
5700.0,-2.956074408858745,6.32006311070189,1.6310017910657018,-27.118608262742004,9.645536593180632,3.0034964205212824
5720.0,-0.12670031881513713,10.29182260516534,-4.989306116213051,18.607536739322114,-22.48475966657644,-28.0902313929509
5740.0,1.9046093360364391,7.9538511844025175,2.9135689870483708,-9.921393270463055,21.355425666919995,-13.475962585275067
5760.0,-2.198604092421764,11.392707412250022,-0.020156673049273377,-4.458946273464145,-11.79260884908798,28.662608595506565
5780.0,1.4871352797801336,13.714928109383603,0.2686025241485208,18.536905395266288,-9.380049391057904,12.448367978432003
5800.0,-1.0378078689389894,3.792164921062456,1.329205558870449,-27.772530228435674,21.94877931702016,-21.406800899358277
5820.0,1.3162830458794237,12.920672897261387,-4.838220480690377,30.724344292065723,-23.330987664849125,-20.928742428459095
5840.0,-2.2599934502647914,6.418371793196215,3.411301898605667,-34.93015947490444,15.339327160256406,21.93485756402087
5860.0,4.419713736644808,16.158732554650406,1.966065296150958,33.99323765039266,3.4219132378095334,22.120084109769873
5880.0,-5.631121897949095,4.815785202273992,-3.7987705456176495,-22.380569168614322,-18.974086224043624,-20.185202081818684
5900.0,4.620081042846323,9.798863267894642,1.7324716220630767,11.84903835411355,21.264100061294005,-25.713775286785502
5920.0,-1.8440043638914427,11.135292157533264,-1.3049004504194668,-1.4166774174023722,-13.888566231324871,12.19030660500442
5940.0,-1.4331052484396587,10.151730937436053,1.9281630964327952,-10.919517789052811,-0.8189214939138582,25.725755199308487
5960.0,5.650542056824745,11.867563770059022,1.7723376909206627,25.7569245635121,15.294936863907902,-13.220000597544566
5980.0,-6.7853583384091944,2.947846400258693,-5.645916902180141,-32.03267933241538,-26.664870492608838,-29.941977921400472
6000.0,6.4974699691920135,15.448763578458628,3.1204141036084576,34.01453388924775,16.368869243751906,6.751637997891075
6020.0,-4.153008042675211,7.434042094714543,1.8236581251738386,-31.24363931090032,-0.5541852834902665,29.33811440760144
6040.0,1.583630947096733,13.269820401472316,-2.5634370051449213,23.46658316929883,-15.98877509289919,-3.812198472019795
6060.0,0.5014089164375645,4.8441912546785995,1.2841118682209962,-19.94567217778021,22.974307416141095,-31.013693082253152
6080.0,-1.712583519688348,10.807380528811604,-2.787950954823558,5.33900003154524,-17.85876415827023,-3.9789330115635893
6100.0,0.9749544525477409,13.208908530904688,2.4439477954352395,9.464956192794006,2.6532646186478743,30.726073917050947
6120.0,-0.6620420686540649,7.670059396856062,2.0471334741096037,-20.149504519470593,15.827006874219492,4.896856528467934
6140.0,0.9815173531301871,11.438147382545052,-5.343199383591279,31.66261270243104,-24.945022634079105,-27.790830316912064
6160.0,-1.7344497409153676,4.4044594798275964,2.21962793953383,-33.61158420400072,22.1595326338023,-5.2588876241529
6180.0,3.8307746689972455,17.07264820797191,0.9954148786809108,35.86406577137839,-5.427800802913991,27.419165798497314
6200.0,-5.571510192743452,6.442147580852303,-1.024939250381721,-31.560894183346573,-9.277079609943483,13.260791496324313
6220.0,6.075881599341017,10.604350338301881,1.5165431479213218,23.42395128071915,27.17493285747177,-23.66038345509864
6240.0,-4.33423857284705,6.8756442497363786,-4.231730848485236,-13.032722840666509,-24.747408007676302,-19.295251057663904
6260.0,0.6507581330450337,11.648394485107298,2.6225518409921236,-1.8080986044830778,11.388299321863386,23.660221953007884
6280.0,3.1943025090028705,13.551294487892156,2.873198676395785,11.570611968464256,11.6520650543642,18.88767071473581
6300.0,-6.079765645864292,4.634945329252906,-4.654606400163185,-23.107640799211545,-18.371674478966305,-17.80706145536068
6320.0,7.051754151550892,12.547349094564613,1.6548554511634896,31.112547777867672,22.80089394111195,-20.948074329802907
6340.0,-5.879483373539859,6.648707727964135,0.08076987440264055,-37.10314800642351,-9.885978341152182,19.367287949176344
6360.0,3.1857201097482957,16.563367593274428,0.6653075755970249,29.147368199715842,-10.857870258347514,24.549908348177752
6380.0,-0.7241748348932876,5.056246110935782,2.139444440985945,-29.24550456629581,25.071683152698828,-11.72930540529247
6400.0,-0.7084046081372664,9.887672342801407,-5.209631948403582,15.54454081980512,-24.304804790795046,-30.27594174935055
6420.0,0.9623614813496069,10.065485504764087,2.497091718023398,-5.213618046709312,9.003108380162182,7.496864035129845
6440.0,-0.38572377966179633,10.99987445984939,2.727176928036601,-10.087097453623215,1.9099650466604041,34.02297817912985
6460.0,-0.08858433378287907,12.263895666574882,-3.3587889774777486,20.489108354547156,-20.14868014726265,-4.2927110385239775
6480.0,-0.9136146812079762,3.1207337814157667,1.1708680476311182,-29.775195026778796,25.497286408684634,-31.248964852276334
6500.0,2.72304685299598,14.654060072987539,-1.5165764207309123,30.087821715571245,-18.86289328015974,-2.3551907338544957
6520.0,-4.871511344056967,7.395239744718842,1.5296397059753104,-37.54146030277546,-6.383369463339736,30.14507312201523
6540.0,6.187223094100979,14.325450809085783,2.9052191258080104,30.13341982729819,21.70480895760037,6.600790188893092
6560.0,-5.775567337830894,4.267731646188536,-5.677232052973961,-23.386585274648258,-27.231749674809265,-29.64921249503486
6580.0,3.1807194507396344,11.249559917072473,1.778750861849837,8.86413521459984,16.79352456950631,-5.793361220647267
6600.0,0.27310535047216894,12.364534422579196,1.864287266691958,0.5491667545613488,1.5233348654988768,29.394256089608866
6620.0,-4.196916607755525,8.67385301955924,-1.786877573603684,-13.060674417432498,-19.022805996523616,11.848306991772969
6640.0,6.199643869122867,11.30476186455598,1.3952383460312352,25.01960878678094,20.401214754322567,-27.754230212700485
6660.0,-6.214649572887626,3.991106664327102,-3.1923540526036702,-30.61196150819144,-13.742897592947859,-14.639926567982046
6680.0,4.507996292234818,16.852288586170157,1.9774947459992962,32.71470037237117,2.0486895860838663,24.939747202375145
6700.0,-1.8247486815135796,6.5484876692571286,3.5827590699167584,-30.13646014578874,18.522705600416113,21.808192769737715
6720.0,0.4488655926014474,11.602560714232602,-4.8902786789847354,24.787727564244776,-23.479174884358354,-17.30021812619798
6740.0,0.08419224224365668,5.644100930840281,1.028047062306289,-20.975904537024704,17.48057185710103,-21.669923225445388
6760.0,0.31114502855752446,11.750058962895444,0.7939734053951139,3.5151480949374165,-2.570937599080047,17.547329497026375
6780.0,-0.903853734441649,13.415979383485022,-0.48909129228041087,10.339015733747496,-13.051615185498969,26.926086428503112
6800.0,0.11336858821928208,6.007346659120367,2.400411118837737,-19.20437594005472,28.204830771283778,-14.97238058838394
6820.0,1.160361989529082,11.61580337064606,-4.9950538854620135,26.869466859442213,-22.91641393741506,-25.027049096886728
6840.0,-3.5427660443760027,5.928585927611228,1.4138720941994358,-33.74140754411548,2.9957110280789654,13.690580170461374
6860.0,5.9889709502571495,16.998847575185593,3.72442022141673,32.850121790196255,11.984238512289949,31.494637758136463
6880.0,-6.775139124979911,5.361415125683077,-3.7183201071263654,-28.397106419173703,-23.76639365023121,-6.967502998714577
6900.0,5.440920038220401,10.435025605619018,1.142008769654133,24.627140114127734,20.854616359615335,-29.90098521409316
6920.0,-2.445448445154431,8.427437051012028,-1.2233886462644037,-11.422977349746555,-6.7989779401193084,1.6931572663543988
6940.0,-1.4639824917984225,11.83386001189886,0.6932578444201755,-2.921975211237636,-9.715311657874445,32.0840840679482
6960.0,5.032762301154652,12.168896931354407,3.4296881202422425,13.505704335784571,23.26665856135489,-0.7683476064772161
6980.0,-5.839052182904087,4.119862202910549,-5.166079110658352,-24.781484315735884,-25.299448454500702,-31.473888742912454
7000.0,5.649281262844161,14.024142218650612,1.0988796603143591,30.379993171794332,9.94067165515088,-5.846815892207744
7020.0,-3.4435621519066393,6.983723198055439,2.9975191843432505,-36.75088173490327,8.603019818149004,26.280607865686555
7040.0,1.2971799013568106,15.187151324062793,-2.4623801064404054,32.22289120186859,-21.871468702446474,11.633455705886016
7060.0,-0.4766438915470651,3.826014335407652,1.717217954059028,-24.09118154626889,23.03539742805672,-25.618672256264336
7080.0,0.4969052558965728,11.22341229051288,-2.6282110751078944,16.918316246505047,-13.45070543629042,-12.88652213061133
7100.0,-0.8377653394126713,11.627087016758605,1.0043078517313786,-5.280841283659305,-6.622932478557628,26.84693960352547
7120.0,1.7328954000051364,9.75858491727436,4.082472912329416,-9.627315002187263,21.36585022959685,15.260820252512627
7140.0,-0.39343570288642626,10.608198708162277,-4.991273160198044,24.094800985979557,-24.929090405525294,-24.231905353399764
7160.0,-2.248370075142012,3.825295576881391,0.5316777870521116,-31.167481964310014,16.32572728061445,-18.726464091748603
7180.0,5.002997773110677,16.337123827711,1.460924138935036,33.17134747550925,5.205561106625325,21.375459548483214
7200.0,-6.778783592591197,6.932326585341361,-1.2834053281018138,-33.8374146176997,-15.312321776714725,25.039522221406315
7220.0,6.959645610615111,12.685902599191209,2.3821159274403065,31.474963535535956,25.975724471149647,-15.0483904253494
7240.0,-4.322630054730254,4.05340546915706,-4.14313647617438,-20.577345452074592,-17.699320622965942,-28.906324498626727
7260.0,1.4040838200637502,12.305222028825241,0.71369397540982,10.910021391608371,1.6126201665003956,14.685511324400025
7280.0,3.0470832954831164,13.000793313365875,4.498806066696396,5.669485629078271,16.47143260846297,27.592296667997218
7300.0,-4.954431205465784,6.5639583059153095,-4.161329853817836,-19.720300294991777,-25.2776380678617,-9.944582899830834
7320.0,5.466078382908101,11.164970023340729,0.6658072826767951,26.661426106547893,16.336717215008985,-28.103349906428164
7340.0,-4.415476418885005,5.298624425064826,0.1980146778264233,-31.462210769480933,1.6328903854891967,3.431230533541729
7360.0,2.618566788526164,17.6946567861927,-0.27665830016376264,33.77626292920602,-17.803837907354925,28.697006707455504
7380.0,-1.2796402333581807,4.902887657667188,3.6439334163615147,-29.158033436708415,23.11574567721786,2.241718057170108
7400.0,0.8653252829194237,11.119948261513354,-4.616440152848891,24.516528563491633,-20.558577506499716,-29.964201852910556
7420.0,-1.199145469262489,7.599968032222068,0.31979603736552953,-14.508767962847292,7.526864691720903,-5.283067134198796
7440.0,1.8850914402166192,12.486049439178368,3.9842138683710506,3.4288344364875285,16.19166083340355,28.623552265752007
7460.0,-1.5686215417044262,11.81183494938913,-2.9562931622441835,10.765718340235486,-24.838048024657613,11.422543943226813
7480.0,-0.3114790559878111,4.169938391683353,0.9929360596358399,-24.584049963863794,18.19890364794022,-27.29661889052405
7500.0,3.4776880783470348,13.080026650996528,-1.1470150313419194,33.162244698853684,-3.3087935094881047,-13.14670965435925
7520.0,-5.967053305436069,6.946129542711058,0.3378649771456683,-35.56025791367438,-13.855557054723189,24.72544960113549
7540.0,7.514850224143006,16.146530484141103,4.37269905254164,30.20981083467026,22.463535365254526,17.578951480910632
7560.0,-6.259876010540572,3.515761353884161,-4.686199794803996,-27.690800541934312,-22.305900626396056,-21.360013656068908
7580.0,3.407852881064658,11.002658328853283,-0.45844637008554423,17.577644336852487,6.435617857328491,-21.121060598631974
7600.0,0.3134104760717319,10.398324714578388,3.460519169992068,-5.4234190820053385,11.943495199144655,16.824476500366977
7620.0,-3.6573586759711527,11.106343910200643,-1.5123195260391336,-5.26259385220032,-22.695845179354272,24.398064753869235
7640.0,5.031438014046413,10.90230543132353,2.2970692446925107,15.535413543801251,24.295078327978313,-18.17187217438507
7660.0,-4.403652145735016,3.5289864293377096,-3.1484791280763424,-30.939407561661653,-9.039908093197162,-20.967333783786174
7680.0,2.9538018747709613,15.657003187926575,-0.2544447323064616,33.31876008125172,-11.219766680095889,11.993061222819826
7700.0,-1.7213989487003436,7.230530287278773,5.17645883822841,-36.814060235382726,22.3751042578899,29.226355619831256
7720.0,1.3752651472987294,13.747304040986977,-3.8154923556529496,31.28031103386908,-22.248555457675415,-13.305924770157947
7740.0,-1.4112901761250718,3.6223880258772128,0.07867967545241694,-21.870639267064508,11.469520132732129,-29.057506110700757
7760.0,2.532222272118109,12.144896996251102,1.4878614957273308,14.302448119108998,7.55567292695271,7.016833650274217
7780.0,-2.49934672715335,12.420437146591729,-1.296797193089282,-1.9785559124417291,-21.160112511992203,28.443045433150118
7800.0,1.2575012851247522,8.047362017852823,3.1315588072763707,-9.955704296992185,26.38102286179833,-0.8518352777669417
7820.0,1.3233891092461465,10.547406178947387,-3.7013479838638594,25.996499141064334,-14.487910252597928,-28.126046020051756
7840.0,-4.4408693652822295,4.782994164093896,-1.1746312052530943,-33.20004691851528,-9.492307761416106,-2.765701448287368
7860.0,6.741114389949407,17.591144307428127,4.836648312407187,38.68582030113653,21.172994153465293,26.643781374912624
7880.0,-7.4823132295305115,5.432856928969023,-2.7926777309933115,-36.7031176611084,-26.07103363476685,7.675582273564767
7900.0,5.495682782702178,11.364138235475783,0.4033101223411941,30.133023762597837,15.288800050943525,-28.647994514559894
7920.0,-2.2241938155027023,6.402121322422328,-0.6996975183112992,-16.906061814036015,2.1627785091446268,-7.892723083362697
7940.0,-1.4167907687202759,13.145774665933095,-1.0457144640887308,7.623929383374531,-15.753669131212922,25.127247666473156
7960.0,3.9512762952693015,11.931340236843699,4.633798791825246,8.883957947501148,29.22091164827225,12.416456549204177
7980.0,-4.539107484004013,5.07887663371604,-4.110352680379482,-18.283194741954517,-16.168558619040525,-25.01234700644747
8000.0,3.288810992301312,12.50663984410147,-1.2162890921903755,25.299032914835024,-1.3563243179805613,-17.381636137649068
8020.0,-2.44463046114123,6.873182783210304,3.7759070767459635,-31.70243187725338,19.967885361961123,22.220911292251685
8040.0,1.4745310210971398,16.67366704380135,-1.930451939371522,32.803790361766346,-22.77940374502569,19.594527649422954
8060.0,-1.658155073296034,3.93971808898555,1.8471046032933094,-30.873165750416558,18.67945121395468,-15.662831406159361
8080.0,2.7149433493609685,11.30598303384613,-2.6129457032432017,21.335276292081815,-1.1630273436795362,-28.662137751868688
8100.0,-3.0930998156141105,8.95538249297281,-0.6978247859980691,-11.448186216747617,-10.994808721172687,14.663018068420106
8120.0,2.976868849590087,11.924189653152359,5.1221217608598595,2.449244135682346,23.31401375121116,27.08915700101164
8140.0,-0.9114210335205378,10.97469224518172,-3.4008699671842613,16.75365524502917,-20.45253384986076,-13.511003042190792
8160.0,-2.8579140359864796,4.091092950412292,-1.2411767477312778,-22.766545161172484,5.1847424304320056,-29.874283804687366
8180.0,5.429440001949765,14.866895495616754,2.501761506377575,28.267455541805774,11.842401182703881,6.711437769276359
8200.0,-7.402708345405621,7.180236226936304,-1.490108555130912,-35.551040511944166,-25.409634366642273,29.93412434695602
8220.0,7.057299920991687,14.645273630641558,2.8185042699122005,31.70348624262952,19.781538634491348,-3.075065628022332
8240.0,-4.596842650662053,3.037914516756904,-3.066067136867225,-25.684193336238465,-8.345766566889695,-31.441773803747054
8260.0,1.1922002577091684,12.404259026426262,-1.7516868045385376,19.58084056323553,-12.567984444873058,-4.187469803526779
8280.0,2.055210879035078,11.638173102917198,5.479298196612583,-5.391356179044373,30.178226209133413,29.11987241491861
8300.0,-3.7976784955991874,8.983477180457113,-2.5189271595420255,-9.027637753353728,-23.158690421852402,2.2093591066308886
8320.0,3.320928803314429,10.214324011171923,-0.30306714897177783,21.429748331994475,5.69738913240719,-23.161036418838183
8340.0,-2.3454144540050477,4.887447997013309,0.65370673039654,-28.838289245644543,6.875732806854325,-9.413694024344196
8360.0,1.453066387964751,16.948606297298788,-1.3469446924153519,31.644499235123998,-24.36018948819268,31.346618999555627
8380.0,-1.5871953362787852,6.186428916902087,4.387542748907739,-36.32428895508367,21.845212446819495,16.606948544563913
8400.0,2.4109490206903064,11.967531823350575,-3.207671574198287,31.19202934114212,-11.819737912484486,-25.432682352209586
8420.0,-4.027082014913592,4.854562526427399,-2.3659407110408037,-24.052331345931762,-9.959005414882174,-17.55468886887956
8440.0,3.9560028781215286,13.398689749216752,4.120896172635899,10.983480420670137,23.387317538259317,21.81956630574154
8460.0,-2.7256572675091157,11.762834969059565,-1.9502476627971326,0.9660304511050934,-21.36194735684137,22.92352504433084
8480.0,-0.42409625872130396,6.353636303790502,0.9346567984289782,-15.197859048481059,10.383399117082192,-16.823778489483367
8500.0,3.522971614609342,11.32619040899442,-1.2356298498783032,22.639200557960315,6.468828191087031,-24.49586554334832
8520.0,-6.424729120312634,6.8827427376868915,-1.833734117529827,-32.84664893156312,-19.329464296401586,18.852082598968398
8540.0,7.380614505270946,16.708210516938074,5.25643292057204,34.59847941772545,23.285521452910277,25.244804432303326
8560.0,-6.07329617817292,4.006854072014961,-3.2144497001196237,-37.50423487005233,-16.179976977841,-12.90190663680314
8580.0,3.2225437847840324,11.232334318041804,-2.060585000232638,22.496435479053847,-0.20742301891291226,-30.08972877236542
8600.0,-0.04839689629510516,7.846735804927262,3.081161606889876,-16.89184447699427,20.483163966463806,6.043300005306449
8620.0,-2.6207221571174273,12.726783189117885,-1.5875301497709076,3.5167931911523267,-20.88522972893151,29.79548900321503
8640.0,3.3307581552263628,10.74342462177614,2.245659631176753,10.126109773209535,16.009030421955824,-7.663528841956404
8660.0,-2.4819450513565746,4.6683720744085,-2.0163284184856933,-19.114166358364162,0.20997122369264465,-29.35426039957194
8680.0,1.9301986148006287,13.556425070365641,-2.0072694435396023,28.752122533266082,-17.091256422644793,0.5088707214160297
8700.0,-1.2994833846112632,7.401627091992532,5.641114035356085,-35.75083399168794,23.36145606781038,29.05456101721195
8720.0,2.3026546112493222,14.49895658508667,-2.4031910348630694,35.69954187012183,-17.518650413463213,5.186504083192245
8740.0,-3.5468400380748952,2.979938858377547,-1.41221746256174,-28.93918803859258,1.4179012647565332,-29.695237604238027
8760.0,4.6122428185887925,11.95876429550908,1.5667938569905848,21.145330126046158,17.33323546122618,-7.865318062141266
8780.0,-4.273568068524869,10.837057944951946,-1.7754170462399317,-7.535147050837056,-25.696343850304338,31.18909180842782
8800.0,2.0129427660402808,10.570143474765578,3.5180459261226984,-2.056686091322863,19.578562361762014,13.592883255401079
8820.0,1.2645365007000855,9.962790372924923,-2.3863903563306903,15.77178988670786,-3.3889582407247696,-25.548039978541798
8840.0,-4.8764628897994475,4.62261597747425,-2.8661142281734433,-26.86043261036579,-11.640028249019167,-14.67822443314066
8860.0,6.9177100943871155,16.413011800532814,5.214092955824777,32.66441658129112,23.645921971806807,23.45431395715541
8880.0,-7.313381699148052,6.698315786565858,-1.4976381754443264,-31.001797702096642,-23.247485654219762,21.409875168935596
8900.0,4.952057895051177,12.716421719491489,-0.2384431408654019,33.28517081010145,7.544788428721614,-22.153354589039765
8920.0,-1.994752469252921,3.9899531054376727,-0.0332048218744037,-27.0099848366866,9.742003458590997,-23.645275033583577
8940.0,-1.283574858104735,13.662140176672645,-2.20695580296952,15.626698136943462,-21.911364693813496,16.542698650267567
8960.0,2.1671447481461947,11.544881330121356,5.0405750346487705,-4.730430044447263,22.396074871757925,23.227963117313465
8980.0,-2.467823405035898,7.251158897157675,-2.1670232363791855,-7.205131619345167,-5.790470375422623,-15.991991791198089
9000.0,1.7448938273413943,10.91158397253649,-3.018224654105851,19.56520390980921,-11.04230229733027,-29.27093378926526
9020.0,-1.2379626383179503,6.076684735010571,3.8685199228649028,-31.622738737355128,18.459581828988263,13.298883463157344
9040.0,1.254983804956582,17.42726840889786,-1.3864564699195145,33.76762954500294,-23.534051687962705,27.336468279198364
9060.0,-2.9848817208721727,4.28273635703635,1.804394379507856,-36.347635934386666,16.281619018727604,-8.396984435874636
9080.0,4.596996516420391,11.835089423633267,-0.8362959479964138,27.077020951881366,3.1928041422027813,-29.279622251857518
9100.0,-5.445055154737704,7.1097691587514715,-2.856063203894831,-19.48065184593802,-20.880462746560852,2.8368050675196352
9120.0,3.8040162818950543,13.37968363627484,5.440109706090237,8.667239620490616,24.24235533201215,32.07315829646727
9140.0,-1.247764008098971,10.591762468844081,-1.747207136602437,5.500112924478654,-13.055144967304953,-0.6439606069261763
9160.0,-2.7095347974133857,4.975982938903615,-2.5122511110231165,-14.066301936161292,-4.168512100695625,-30.882177218947156
9180.0,5.62417402960036,12.869609928351581,2.142456881539824,25.038354643781908,19.266239441027892,-8.569012766287178
9200.0,-7.2368657854451515,7.31469289082914,-1.7706549064487351,-36.11153133251337,-24.95185389006477,24.421698756425748
9220.0,6.454489659285406,15.804669610214845,3.023616939630788,34.48262645942146,16.347348274583158,11.930719538712102
9240.0,-3.754425441384528,3.1719257344415395,-1.235843541589799,-29.254796066577406,0.2496671227197076,-22.657524493524768
9260.0,1.1800261592658179,11.803306374516989,-3.887004830412468,24.160673562164696,-17.846579562512662,-14.183753250103639
9280.0,0.948090579079111,9.856447929484707,5.281472866381728,-15.811603077090982,22.20586519535526,25.028136180398903
9300.0,-1.7263148599669216,11.904773787900798,-1.1864054839446796,3.0717928020501817,-19.780921673630647,17.254406307654307
9320.0,1.4889462911156521,9.89278132596342,-1.2983187577178716,8.36623846008778,0.8772727247708177,-21.06165096796402
9340.0,-0.4004429314404995,4.804881610358515,0.9376721086376985,-22.023255513898135,18.199180217445335,-23.00154306432996
9360.0,1.0432325089303927,15.599307071350072,-2.0800817155677804,31.932863971296147,-26.614974042420062,19.590908656852488
9380.0,-2.3104638384661604,7.111832741405808,4.27824753030052,-38.55481555412836,18.153102858846907,21.78861286285595
9400.0,4.01135688325136,13.561146732476756,-1.2396614408202418,31.424313671774854,-4.698123399481003,-16.775377159850166
9420.0,-5.779388125100438,3.4223916103885577,-4.277197674189935,-31.30509663984035,-18.52411836480412,-29.34119044915485
9440.0,5.372857099188804,13.672826910019609,4.279731884303033,21.244099840332215,24.331282048808905,11.069752287045159
9460.0,-3.6891328981701363,11.051442024288885,-0.9781065607105502,-8.584650606139594,-18.33569535482013,32.10952905154598
9480.0,-0.29082334410746147,8.47845162947845,0.2625372488484218,-4.616902175228554,6.3913493697708255,-5.076873715205439
9500.0,3.900902155759813,9.830084955232529,0.16455372098632765,19.46741229601405,15.187432097288148,-29.385124376849472
9520.0,-6.342801052307815,5.934881774181565,-3.1838424575319544,-28.273248218186872,-23.247295577598187,2.7768005179413855
9540.0,7.163986307322211,17.011139190644887,5.038019010978946,35.18355878977251,24.044941199907793,30.666066221343463
9560.0,-5.032150823380523,5.0402221747555185,-1.3211202841828893,-34.29789086944641,-10.156766669186384,0.24186234384994187
9580.0,2.7924462757281208,11.858660629655663,-3.2117107307827353,32.24222677552261,-12.230001700427609,-29.06174306032295
9600.0,-0.443633208066648,5.992654415616239,2.927394430961257,-22.75526046738378,21.969126114129686,-2.89680227688009
9620.0,-0.9208087497948153,14.297892158117566,-0.7914747000763671,15.487619110694148,-21.548702229842576,30.389278326473924
9640.0,1.1085351326387833,10.307691359695362,1.985340212335027,0.1491356186317172,11.788717366365194,8.160517027554569
9660.0,-0.13656608512917995,5.74709850672011,-0.32240576119099895,-12.624099499437342,11.122782112035118,-25.10639413340045
9680.0,-0.047160010969670096,11.898690515040053,-4.068107674401515,21.687764620095603,-23.132128355671913,-13.814288235917784
9700.0,-0.8591421366321426,7.657776573404389,5.190801412758175,-28.754830994174387,24.550749719964852,23.714987430815807
9720.0,2.8536994058777965,15.98525749422521,-0.2727470674198854,32.69457003571162,-11.998513117541021,17.369064928049685
9740.0,-5.185383978415465,3.057467398183949,-2.4425307557550147,-33.026434031451544,-5.704794179444624,-23.308085431539673
9760.0,6.342178416309394,12.01354085122208,1.7808162290782832,29.02644118790059,22.804141369839563,-23.248386003026276
9780.0,-5.333113462490519,8.980924470784037,-2.202546089514243,-16.31854949062797,-23.086803599667505,21.3546863693224
9800.0,2.528808192249309,12.922483583935975,3.3835657952508975,7.01712143217474,14.668072928844087,21.79466541295166
9820.0,1.5688295648945654,9.066481875142147,-0.14635681880467633,6.900416015542141,5.085233429763164,-17.199036353852307
9840.0,-4.740528354617856,5.226687768453131,-4.38963182864878,-14.664834473238834,-23.275604551050463,-24.401271872117896
9860.0,6.887172830462339,15.010350238554885,4.506248892862251,29.710275856830986,27.449612490644427,11.331301635460763
9880.0,-6.10839060601124,7.375918460922836,-0.2705014857467465,-30.427998629381456,-15.298704337701066,28.132046798595486
9900.0,4.221076348428896,14.048947000267137,-1.1044459507141933,32.362825625113366,-3.3376273790893047,-9.475645728100442
9920.0,-2.019690056386561,2.7983252238854353,0.8799746279894035,-26.820389747849752,20.259666168669998,-29.268747630562217
9940.0,0.1173009318079756,13.590924062651256,-3.0859569262660567,22.434707340972558,-25.36702393771096,3.491775294734153
9960.0,0.2729135157017143,10.8131943768944,4.728231197341324,-12.876257327221976,12.756450921908225,32.496830396318956
9980.0,-0.0938338930953718,9.993594229795194,0.010021556090148005,-0.8426347725138064,0.8534636668138854,1.2230281638090101
