timestamp,ax,ay,az,gx,gy,gz
0.0,0.06722790273064544,9.74459319462146,0.13516300127355765,0.12731545746544842,-0.3453939463146093,-1.9931630504089493
20.0,-0.5386080276760115,9.182694563090221,-4.324196558323143,10.870879292600694,-16.466285843226473,-30.34112748629456
40.0,0.05143342283003477,6.176993599707821,2.9372586149861037,-23.03417848437308,22.48334387444433,-2.872820948398138
60.0,1.7278923711295886,16.77924902592548,-0.3821964525899555,34.44089900536389,-19.203560758196925,31.22973764600784
80.0,-4.289783429158294,5.510860480534181,0.6335336917889416,-33.19070143793022,2.888778129706325,9.48529636847888
100.0,6.09900618305739,12.401434830562598,0.1394192630476568,32.33083431885689,16.458081988571514,-28.580028886386483
120.0,-6.278440206723357,4.7456257260296635,-4.116036408242864,-23.655185774664886,-25.846819464957647,-11.84043178772945
140.0,4.466079692841134,14.51299282453499,4.529278291489236,17.266209326568774,24.830704729373487,24.86547055164806
160.0,-1.6891889141269363,10.163936479121123,0.49750879507634954,-3.8255876850057815,-5.420127023341015,16.37117057085708
180.0,-2.2994975047435515,7.236904553119357,-3.420855807996446,-9.110153937716092,-16.756415297552824,-23.334497734302964
200.0,5.485528603163404,10.938483873275995,2.0630316542790146,18.146181028431695,23.575544335702475,-19.107865353311286
220.0,-6.050930677343519,7.46481652463338,-1.6798779350167117,-25.604957095959378,-19.813001914314192,18.366986549312482
240.0,5.319084425851678,16.597405380572823,2.4910174133941814,32.127295555445706,3.3332651352618465,22.644871897031535
260.0,-3.2759152503173423,3.2211549929083327,0.22081789039628374,-34.24718519085674,11.237692137299772,-13.541196880217843
280.0,0.9642464291169999,12.397767291910991,-5.161508752847613,32.32924369151577,-29.447052821656648,-24.368172973668635
300.0,-0.0586139682737058,7.908034435094089,4.085262810583032,-21.86219074602541,24.903202708978352,14.050342112678305
320.0,0.05836223569565385,13.70406401275179,0.4928949127454844,14.317180378920533,-8.912491330674598,28.833057092101686
340.0,-0.9150173056537378,9.245416805965782,-2.236366572979791,0.3685396939929477,-13.89283239995888,-10.343566216297862
360.0,0.6921462181489532,5.493672821108517,1.1111997201841994,-12.871635944819364,27.609624889993523,-30.167553868558464
380.0,0.5757888466879065,13.90850484485234,-3.052188247017214,25.183491942841933,-23.761579549750138,7.574663828703885
400.0,-2.7157540781002756,7.875290986734261,3.7428881272855126,-30.67380367087618,11.379553727113027,32.74668663128685
420.0,5.176568771021903,14.747636255352198,1.1808090952646295,31.34331197368639,5.8700317106353035,-0.7395301288114249
440.0,-7.1794464917578305,2.2973338052072174,-5.286908293424711,-28.792451601617717,-24.197118977982264,-30.895351038785353
460.0,6.584362289278547,13.572603711811595,3.219725528961346,29.71016338022362,28.37458945513825,-1.7896052160920857
480.0,-3.745542957786716,10.162823387006558,0.17432949861652514,-16.479947671117717,-13.085425791484985,26.79581450143522
500.0,0.03266911934133328,10.897811837067579,0.10978765664111056,5.969838093166223,-8.867300457815809,7.679899595067598
520.0,3.3138026264026705,8.684126000803909,1.1602970889650406,4.991764830983742,20.35452484546533,-29.708476421999077
540.0,-5.367401758906404,5.978938796358166,-4.271609591378591,-21.526981072935275,-28.065554659117623,-12.144042389846202
560.0,5.5492325351105,15.925947256401045,4.156328693636314,30.091338833080652,17.9851948802886,27.127027622048335
580.0,-4.243980963356735,6.130742238647722,1.8392666072697206,-34.1916814346316,-0.8678006417909039,12.61695662781694
600.0,2.397830536269133,12.85611099448804,-4.154468507479564,33.170203042726946,-22.129631877227144,-27.389280181244438
620.0,-1.3110248734849308,4.046127157326709,2.2039299547295648,-26.70851308207598,26.095574390208686,-22.425547760266568
640.0,0.6843204904022384,14.542468283723712,-0.766250369153078,24.727409033597148,-16.58149028187266,20.562973234679124
660.0,-1.8129377204054817,10.077808701832797,1.7033591770962446,-14.153024551295694,-2.437451026124134,22.849740973040667
680.0,1.8449985160534261,7.76828549042195,1.4207516846661201,-6.025721383454119,23.2118921498288,-20.21555608372232
700.0,-0.9896348086291399,10.003028233708113,-5.046658715093166,17.099105211832402,-24.57705592649086,-21.963003004026312
720.0,-1.0449100588073055,7.362890948003879,3.2867503037229993,-22.730913329120916,20.76612718927317,15.826727663390582
740.0,3.9026672188646434,16.599044181631037,1.7475182126593332,33.35195776936988,-0.9217576491880657,27.489362755443523
760.0,-6.3332940861655755,4.132939065393833,-3.1437568078288978,-34.547753558246015,-16.027726194814935,-9.039263910516295
780.0,7.2083626263442175,11.85248111829041,1.3510471705327123,32.221681737536876,21.369556036837523,-27.499362128885462
800.0,-5.900370340097327,7.079258293359075,-2.536031289963054,-27.761521871495702,-19.73090715039058,3.906217269862438
820.0,2.478434207593646,14.618797919579206,2.597796242425435,17.45345498086739,3.814457701680978,30.74963074830022
840.0,1.1551226484679484,8.83923479609494,1.8683344063913345,-3.351734016254005,16.302074177470097,-6.3710504519629305
860.0,-4.379351906145777,5.633629978148825,-5.656629314854259,-5.010949313120354,-22.87646778978837,-32.12967323213248
880.0,5.308848112901956,12.398504669893837,2.7553943794494455,15.768561448385128,20.885071775014342,-3.481069875195978
900.0,-4.308268225219229,7.930656430573558,0.7325976999788639,-30.53188541977958,-7.840164565573314,32.49892713656492
920.0,3.0054541319133605,15.325674200739769,-1.3574764674987243,35.12233187170863,-7.5698140616901135,6.22605274814858
940.0,-1.7645627138346949,3.0483425243753928,1.4673346179779627,-35.63860456537434,26.21069970254546,-28.583009127311044
960.0,1.2380150721196594,12.958450536968503,-3.688408933663853,32.01596406966428,-23.82295657893416,-14.001681928281261
980.0,-1.89381844862477,9.081290092201213,2.8433125142079207,-20.21195953375787,6.519562113855754,26.54857506342171
1000.0,2.3142804514410966,12.226406688196064,2.1601650518472475,11.615098355762733,7.914065075351605,15.872169911415718
1020.0,-2.2908411017743013,8.115784841684762,-4.842338146531612,1.3426766958701188,-20.429872195504917,-25.39350836655651
1040.0,0.7938948765806958,6.168078849868432,1.716675160907257,-14.38176972789565,21.382700093356856,-19.302317240482445
1060.0,1.615343192226529,15.326865054457494,-0.2254233146725556,25.374137279716514,-14.404381519589844,20.683081899949435
1080.0,-5.231703965178709,7.171572516180247,0.14550554900429916,-36.0067020812501,-7.373665812622044,20.61628219514186
1100.0,7.33042876291461,13.079183715210469,1.5289684561673353,33.51653242388256,22.11659403365058,-16.44645754690205
1120.0,-6.739972920343223,2.9734074236679082,-4.897424614783493,-32.21653160758832,-24.833539708237836,-24.125604040419635
1140.0,4.611173910893764,14.73988112985877,3.0969332585734075,24.93561082949356,9.669057275286104,17.70846033357279
1160.0,-1.1577472086957257,9.588465941741688,2.4617298274796497,-14.609391607189112,5.646435458804382,26.395447842941547
1180.0,-2.228724423652879,9.037346851791156,-3.955575632625065,3.706379287731372,-21.39915399862624,-13.25536618262866
1200.0,3.83578533719484,8.920949607534457,1.5819550304853518,10.15970241480812,27.965581278343905,-26.57937750405658
1220.0,-4.599995160899838,7.604169353782907,-1.039426179334073,-23.60257101848441,-16.956773474520148,8.994193843722535
1240.0,3.508503254247611,16.07070092567314,1.6598108071916258,28.737384562531723,-2.524777819223358,26.397957563874222
1260.0,-2.3350493987683807,4.537003025911577,2.6311344288406016,-31.337061913892754,22.11804873328609,-3.094909738712305
1280.0,1.4789110039787152,12.248888053509384,-5.213867606577994,34.19859127475847,-26.19292572447093,-28.775930507134177
1300.0,-1.9813894000878522,5.6259069079774555,2.377755741064332,-30.86979271466544,18.76183569772906,3.023290924758698
1320.0,2.537126084182923,15.34936166036958,1.7264402566354555,20.671923956713186,1.6758253143843507,29.18460886934555
1340.0,-3.295708910715504,8.7806634334269,-2.200729934244586,-6.876376593463917,-19.558363347302013,5.07175902020874
1360.0,2.3957981166494737,6.738984477151754,1.5528182443204577,-6.881636810758171,24.5152726078117,-28.271309507227933
1380.0,-0.3274200323005729,11.450345586349943,-3.399594871647244,13.085174506688256,-22.857191971585614,-3.8191822118954173
1400.0,-3.160793189233306,8.336706393294966,2.649780404071098,-27.850283294100713,3.7759740945192712,27.348783998470974
1420.0,6.067019745681801,15.614707298175052,2.927883013430016,34.391879150796505,18.00414672166557,11.581183197567807
1440.0,-7.703370304668332,2.826795406689282,-5.187195332583806,-34.89444006215914,-19.886328343426314,-23.744058765766614
1460.0,6.433550543557686,12.986597045374607,1.7776693597727313,32.35211313169453,17.66480395981117,-17.999622089428062
1480.0,-3.9228865684371614,8.334294959751977,0.9360270182380188,-23.732302860673396,-4.472766258344287,19.24355087480921
1500.0,0.3003843258328396,13.838062705469987,-0.5702481158445087,11.224471038375604,-12.022698243675052,20.520034053917364
1520.0,2.6817491398390203,7.853937117721168,2.0246989248855134,-2.970174981686128,22.757460306251996,-18.521159146047022
1540.0,-3.8123774865530313,6.272055060633564,-4.546362469871241,-16.195124999912316,-24.020870838932062,-25.766151006338458
1560.0,3.7749821233496696,14.532431841017333,2.4069077501889358,23.138340058710984,8.51443388869991,20.740047091795457
1580.0,-2.6728806251685877,7.933821726390281,3.073852649497175,-26.98182161992342,12.3230788710368,23.90055725393508
1600.0,1.3184182343878412,13.716073443846632,-4.1234968156846525,37.06467309959528,-24.05102515390433,-15.770891521594915
1620.0,-1.9565490722392942,2.470421991283299,1.254743622945066,-35.0743099833575,22.267437165019206,-27.695098344681014
1640.0,2.9413953575742484,14.97421285921133,-0.41554710298929665,27.801976502178697,-5.896310262587047,10.071105315691206
1660.0,-3.4401079080259476,9.36162166430971,0.6953116669322527,-16.51602789550278,-7.930336715718629,30.527751835103984
1680.0,3.293001240239964,10.561660250145913,2.7472260531543853,8.043470096208464,21.918420132686865,-6.859781535672724
1700.0,-2.256259408389293,8.13504147281162,-5.517173248098819,8.172264038772258,-22.28462593426823,-30.472472267339665
1720.0,-0.776251282084829,7.5370036162862135,1.4013248220462637,-17.06072667299835,12.702050000510654,-1.7728514286841137
1740.0,4.753222424739357,16.347921253738004,3.0925671807807253,26.14454302124515,6.403528667304805,27.409466688950644
1760.0,-7.000508394554593,5.391285554903795,-2.7320721713220317,-31.97774367093607,-23.935968697376023,3.0029612774562042
1780.0,7.472932057844541,12.308746295043479,1.5974041707337379,36.38712179646289,23.46764188345112,-31.163079686498286
1800.0,-5.623540508295623,4.495058178166659,-2.4011958460058205,-31.307840895460995,-15.35225205980299,-2.836828877524348
1820.0,2.4086011015398685,15.520973431651633,1.180809404388999,23.338002630353426,-4.013569962206746,28.11887242332018
1840.0,0.9072440497960064,9.035616582726831,3.4274197146165584,-12.845418860923873,21.34574330612398,9.582619334245836
1860.0,-2.622771736648955,7.719778129590255,-5.150134547869315,-0.6486804925756942,-26.121653219185376,-26.180119319817184
1880.0,3.5511451912537693,10.064088910028207,0.9757138416312136,11.81605208138812,13.890814171104864,-15.691453653377906
1900.0,-2.449363851861524,8.46771443845675,2.370861023707235,-26.31882642016209,2.385023950430592,22.604538693543407
1920.0,1.7099304184803292,15.690265644227226,-1.7655514846036622,32.53979492146368,-17.493437153646294,20.459851760047467
1940.0,-1.584739557405634,2.8711056012285203,1.9034156121246055,-36.030150076604016,24.01120470369885,-21.028818842416463
1960.0,2.1896175345342854,12.671598813722003,-4.018035367310817,30.209636270953055,-15.07613235749756,-21.50254755626999
1980.0,-3.6135480679805174,7.371866994551508,0.9063732421711503,-28.92776817141754,3.4903400246861906,25.796812525293575
2000.0,4.375721356827428,14.49265906357679,3.841657799318768,20.28296177736451,19.07095064492624,22.743835341406395
2020.0,-3.8823475583123033,7.657157621102287,-4.215898706128991,-7.726077669485916,-24.02611419235011,-13.80202147137533
2040.0,1.8195839603631212,6.677808265516474,0.8085811776892218,-9.877513460038868,17.19407747777987,-25.535126825308534
2060.0,2.060624369003866,13.62552235434407,0.3812289376796499,16.45630229901574,-2.9159214526924484,10.467258260878388
2080.0,-5.877087164333156,7.747083122201379,-0.5975001139487386,-26.562793564063785,-15.075470056897199,29.755683429325845
2100.0,7.298102043193927,13.976078200858874,3.279877393507765,34.375725715976316,26.40061063978312,-8.122711820392931
2120.0,-6.581940759642146,2.3709545462105117,-4.507874024768455,-33.16369214675762,-19.558796893200356,-27.449099405941396
2140.0,4.458237977365973,14.442172258089588,0.7349647047729782,29.925868468718164,2.734601713206189,0.40070907374647335
2160.0,-1.443497724796974,9.19452654331509,3.8366588098923105,-21.14807313134124,16.64916784912822,29.93655579609106
2180.0,-1.1712508585285772,11.589033456518955,-3.1428154611799997,13.125131960772553,-25.24319738422745,0.6724849570673225
2200.0,2.5634702577666055,7.435695444167097,1.1250589973803766,4.381081211838775,22.575016826610263,-29.501699160135463
2220.0,-2.6198321435138885,7.312675233749235,-1.4095572225757238,-15.78230893886347,-7.075321712420314,-4.929266924417888
2240.0,1.8346067762995175,15.858194488044855,0.5450627879663044,24.850523891662434,-12.304914370376283,34.961434284729776
2260.0,-1.3803103530504441,5.898067779824504,3.9961829551216748,-32.695832703504394,24.785506812484908,8.725243223549219
2280.0,1.9265924542317745,12.607188760084815,-5.185988731629254,33.898389208252375,-19.963728257680266,-28.02539764739
2300.0,-3.6910635333869957,3.7900644848956166,0.5834745377771322,-31.952174261068198,8.723866917600544,-16.749804513058884
2320.0,4.480027960385328,16.054666513514725,3.217628983295855,28.99174656997281,9.25830793959049,24.409544873722414
2340.0,-5.1200540520260445,8.571624740343683,-2.1782178639770384,-15.461762853808576,-19.976678882779005,19.066572106720695
2360.0,3.8988981720383338,8.775080893648994,1.8099037904405675,2.6513475564671385,25.10569350437857,-22.51270802471066
2380.0,-0.553910052526271,8.910815713689185,-3.089522870502178,11.28462073128837,-13.272070867963214,-24.969489513907813
2400.0,-3.3621115811190374,8.377764918834883,0.060618217421841813,-19.483024081053376,-5.942260959375954,22.83133382351042
2420.0,6.187159920634597,15.989247562466202,4.486389780964883,27.655046987691495,21.653965226188003,25.80811242144503
2440.0,-7.38263720955095,3.545020596834527,-4.398679500282218,-36.22442860193032,-24.83440374955799,-14.135085445369668
2460.0,5.903659565055716,12.770597444138554,-0.29679820006797747,38.25632328168562,14.754300089407904,-27.14505655693561
2480.0,-3.2999233507271972,6.7265035749379205,1.6568378603809297,-27.787758792678233,5.789302948701418,6.736327638066134
2500.0,0.14763931629447996,15.649543834696187,-1.3243452261800963,24.303869958588148,-19.684677119450235,28.85997996214207
2520.0,1.6642884354480556,7.663627028815175,2.9541312763779755,-13.339765819144555,21.83623581768781,-11.255470925087911
2540.0,-2.0155737842157864,7.343893943347889,-3.99635557167259,2.8341726417874487,-12.334951212688795,-30.010256072719592
2560.0,1.6520123623116052,12.29045246944465,-0.18495418390040883,13.485474212174024,-3.4972647287314462,3.945735783626179
2580.0,-0.668956683400046,8.702090142266893,4.588153122779159,-26.693522161264795,15.64808835167316,26.978689989716344
2600.0,1.4386963949425333,14.533337538256095,-3.6354835969009978,30.57498308039224,-23.73710507928725,-0.9223492547645498
2620.0,-2.43371422167925,2.2125890252650473,0.12432233958581884,-34.507139097181906,14.967912539650586,-25.480108548030962
2640.0,4.820972174688345,14.45991620621847,-0.19069550291525592,34.469432530500775,-2.7442631915425233,-5.7574214895150675
2660.0,-5.105640513228707,8.36181060549535,-0.7396199659635966,-23.43065104962323,-17.66328945631619,30.705684590365173
2680.0,5.222526924697752,12.743970812488945,4.206719358105423,16.55108613805616,24.400751936116585,8.467708911557896
2700.0,-2.6321061743902177,6.911632205369575,-4.6849163368718845,-2.0350083117634648,-18.192891666201316,-25.948126488744556
2720.0,-0.8833984960681313,7.578216873999074,-0.3184188359189781,-10.963953102469514,1.83581826252221,-13.833711576975936
2740.0,4.574138873256534,14.825397185577422,4.062594491711759,18.571057602497177,16.98036650888316,26.76252909493598
2760.0,-6.707414418601049,7.052839424196605,-2.7397649110855755,-28.409933175623383,-24.812579753303837,12.863248208637714
2780.0,6.752184928194804,12.33499231892588,0.9924677524770202,34.07269818101441,23.209231470452814,-24.825482938863768
2800.0,-5.006578812405476,3.1526316424735192,-1.8954038819569072,-35.51029812800276,-4.855846822824927,-19.291346023648874
2820.0,2.343383021602574,16.05386631072567,-0.6249124871652607,29.97438647296428,-12.593240419267143,21.232715182107864
2840.0,0.30270760070965397,8.922318793029925,4.720692664897398,-24.037839388193984,27.367022416730535,23.507037128100098
2860.0,-1.2879377682809623,9.818778210019364,-4.039339887759696,8.50269205819371,-21.450208227483554,-18.551018242988466
2880.0,0.9618905423435186,7.721483989891402,-0.8047320400077084,2.8930289509251477,7.86901170508534,-21.224745069662113
2900.0,-0.47280247839052353,9.078508703906424,2.4785528174157974,-16.87805324488125,12.264204294070467,13.190386594832935
2920.0,0.4563122668887177,15.904043962699573,-1.3768745733608894,27.275821277316368,-25.163622649801614,24.852257867826253
2940.0,-1.4085105431961826,4.584464049822855,2.930427633155366,-29.598187114083743,21.18871805421166,-8.525873635303228
2960.0,3.674775771968897,12.240931356642333,-3.241953506246372,33.28578310164589,-10.616830195881525,-30.28250859244252
2980.0,-5.4148301034775095,5.495210357764335,-0.9757210301841127,-30.269735457919488,-8.843576626503106,6.4472477115044855
3000.0,5.845861883598717,15.79111124991966,5.097672366931554,26.595272959510485,27.680942458311215,31.902137400872686
3020.0,-4.963731890667462,7.597085428412576,-3.285103325354192,-15.826837126997026,-27.638856467566054,-3.713951203123
3040.0,1.843307742771727,7.780742362504294,-0.5326612657388043,-0.20513178457046966,13.543931561068657,-30.132508839999335
3060.0,2.3595350618448587,10.748998669342775,0.99731382114978,10.220900210251292,3.793546762899177,-2.5307181512827497
3080.0,-5.2429030639887975,9.408437445694926,-0.8866402411700383,-23.910644978487326,-23.421692585228325,28.393976108064084
3100.0,6.601534883685684,14.769578068066032,4.092075038683857,27.723040515680136,23.96372154024901,3.484825497338306
3120.0,-5.677049883402468,2.0605068008737746,-3.744622626537025,-31.540090735782456,-16.57943733452101,-30.665515936137623
3140.0,3.682789779482305,13.820653810401748,-1.2498959643808805,37.557249774381795,-5.863806808693981,-10.766729735408818
3160.0,-1.3648775093686034,7.721033139772716,4.3814327830763355,-32.04414860521896,18.794994361607834,27.693730356995832
3180.0,-0.6753051060976696,13.549519972253945,-2.4395670551599515,21.425793202936866,-27.93973295533036,11.24623390372099
3200.0,0.4521544438725198,6.543470286019297,0.1682948675047939,-7.871284714960084,15.383462859207633,-23.52488655556218
3220.0,-0.22338263072277773,7.659349078068281,-0.7706050821908441,-3.949129326962129,1.8173381605668837,-17.52592565953439
3240.0,-0.2489798854581325,14.187910304113123,-1.2754852024491399,15.22367266317044,-21.011958184502884,19.266836666746997
3260.0,-0.4671884168215139,7.717938547863334,4.921481647452731,-26.8174019417489,25.68607866198722,21.991460602147754
3280.0,2.3362160710073026,12.706991111653418,-3.2659898003040952,33.054186232810615,-18.572650215430777,-17.14199918796944
3300.0,-4.6195708342062405,2.8480369607602043,-1.7220634969381594,-35.277038826711234,-1.4494670628545068,-27.246901233806017
3320.0,5.982125164242117,15.829218649929272,3.524084056682052,36.20275763773456,21.593929673003228,15.966814160227042
3340.0,-6.428777790496783,8.53300300648433,-1.755340947036773,-21.526629649026567,-23.956605262146994,25.911083268300693
3360.0,3.8554748124857707,11.130245710906872,1.6781790410306519,14.497216979648874,20.49276967210484,-16.111695858171338
3380.0,-0.1935998151983343,7.181594498199465,-2.241483287523691,0.4397281780769713,2.7913472520064704,-30.87595018392798
3400.0,-3.277518992569521,8.706705302034887,-1.9674323127812439,-12.836509010692822,-16.239761894278015,10.720790265583659
3420.0,5.682130533671817,15.258766665222728,5.562416778198422,21.63463231634894,27.18614667507813,28.0363877862637
3440.0,-6.429258558474972,4.893993033038949,-3.117750000641933,-29.26199861229149,-21.75544945837355,-4.9670976540861
3460.0,4.672819918217355,12.188902503668249,-1.7125666552646022,33.6349070980795,4.61994113418648,-28.51479446062109
3480.0,-2.663063177554063,4.908644188293499,1.7117417917964126,-34.14289840833629,16.499273246451096,-2.107357639058162
3500.0,0.9489625273779453,16.11100711598312,-1.4284664625976498,25.382665263467846,-25.80827427647011,26.229159161370614
3520.0,0.23063661315477862,7.268572864423805,3.3874452098103833,-18.24582584625676,21.679580491513576,1.385428535988023
3540.0,-0.12286125467632475,8.309492089947147,-2.688548154604346,4.244659713556061,-4.649453787867582,-33.119863052635424
3560.0,-0.9021488526843148,9.511874774277802,-2.4394412443209603,6.661919771962647,-11.4384312392524,-12.196355036178819
3580.0,0.32425150099771716,9.520661214501724,4.893617630662676,-14.920743572430677,29.393773902185046,28.355904392640404
3600.0,1.0930797812476343,14.65767644713156,-2.362297140437115,27.480953180088537,-21.883702073029628,10.498261099928044
3620.0,-2.87290444084356,2.859390705613935,-0.6474493020227893,-31.519008778607308,9.782512387329314,-25.035644906459456
3640.0,5.867155574820853,13.108035313622642,-0.1775818399234223,33.26384154475494,10.977450357473401,-17.35560069857969
3660.0,-7.091000106192243,6.821449156761525,-1.6763960866711523,-29.138422795193264,-23.70419614972642,25.055406939473492
3680.0,5.6389992470545005,15.268265390331594,4.544822133948757,25.90780676896622,18.729617758240373,21.300323290618323
3700.0,-2.9629986929629775,6.044285319131227,-2.6821746197772063,-14.744282875314033,-6.599478401660888,-14.34600091664647
3720.0,-0.6760467206984934,7.984654999459833,-2.62984420694611,1.9371423528137246,-7.4928181480216205,-22.594743905297246
3740.0,4.212735089698539,13.00529697285284,3.9437513901739765,13.934933493481227,21.000240747109295,17.77319954608248
3760.0,-5.664992956844546,8.53801520800557,-1.5342567844030102,-21.727424247297424,-24.855991656163468,30.465858082014297
3780.0,5.625308341637715,13.241229493314696,0.9954030598020589,31.527998746171455,15.666317839209775,-11.903169419077352
3800.0,-3.8504000537081295,2.8359638667303293,-1.1169512602346647,-36.1183659209528,9.48689926100447,-30.258912315674497
3820.0,2.435291201144583,14.860865927057722,-2.214883887222296,33.35440850387444,-19.093774074176252,10.494640113243406
3840.0,-0.88789474084772,8.080549739616467,5.343750051403849,-28.537376674381917,23.139007707176738,25.67729439501424
3860.0,0.4380924950329611,12.32049519093568,-2.337988474141156,17.31733259180753,-13.95452730800912,-2.7273783338541575
3880.0,-1.1705611685528556,6.280829910214304,-2.887054069981599,-6.2231063386550565,-6.483894588028246,-33.101938998029766
3900.0,1.87071100917949,8.742030872633226,2.8015129629337463,-8.430789583027288,20.393733155331756,0.34170925884758946
3920.0,-1.3611574584278165,14.786919178251411,-1.6635947661554815,19.43548690920185,-24.423598862733627,30.725981943490524
3940.0,-1.2156140851992283,6.11994295738085,2.4138837873373507,-26.586038796468888,21.288772914509927,4.826070543958879
3960.0,4.307636511172102,12.321124812518104,-2.0294044099436346,34.387549523988795,-0.12983964081900456,-29.471860363909922
3980.0,-6.3774831943146095,4.522325175309193,-2.6950655511881507,-38.312278929473024,-17.2141870980222,-7.968071042310592
4000.0,6.865673330070333,16.44468287275399,5.7689253246022885,32.02216613055188,22.27536629326969,28.326413580432263
4020.0,-5.387930099337406,7.444226573013572,-1.688483233916359,-23.887246771421214,-18.202490376761915,12.96902992877922
4040.0,1.5861036613946364,9.121028182200785,-1.4279894561098208,11.940608867851633,1.0662535751915807,-25.7380208493613
4060.0,2.050937593085304,8.726517330803759,1.387037833599023,3.622330713806417,16.06618660755697,-18.73011355737062
4080.0,-4.581928938824031,9.977070773270649,-1.896918515527998,-10.313396971797907,-27.931706873891862,23.026209696013087
4100.0,5.480767897410265,14.56992406240174,4.189287054150478,24.847171901037598,20.369593271403534,20.079261586527537
4120.0,-4.244734247501953,3.319294121196114,-2.2286714432015726,-29.588334953757258,-1.9013798905256962,-24.11537848051331
4140.0,2.811473086407273,13.166460495796306,-3.314898662522086,34.34019248403321,-12.349731172095211,-22.80191542320953
4160.0,-1.4667897397065983,6.5805993908597165,4.459117680720931,-34.921726237522954,21.722827025839027,21.286481750400945
4180.0,0.8566563637129713,16.00200259777217,-1.5037750907593714,27.112311549625257,-20.937947139329246,25.251079842297553
4200.0,-1.6375975904932722,6.35905201116108,-0.09515783903590072,-13.78628372409083,5.145173283812118,-14.669812459831299
4220.0,2.0249301913685227,8.46117020838501,-0.07040766212669468,6.379934649323751,11.857625215109628,-24.60310571953698
4240.0,-2.149270624036798,11.464217936249288,-2.661548293728783,3.3117865065175374,-19.97553199450964,13.043078327648933
4260.0,0.20199315173251872,9.120485944866543,5.140507297352221,-22.736467954458135,22.511553160507837,29.313688673025986
4280.0,2.569237665597748,13.538946022122104,-1.5444559227115295,31.398750308419476,-9.937002304419664,-5.426253929791054
4300.0,-5.771487526743325,2.7056785397676024,-3.646113675811202,-36.23024593688509,-12.185342092638537,-28.15399088916298
4320.0,7.254623333338869,14.814739251796539,3.1836644349511745,34.608973654727016,23.425503725837494,1.5661216375293732
4340.0,-6.87176629458841,7.790921813902767,-1.2015738494679609,-29.9141718851129,-23.52260020724685,31.553115309075572
4360.0,4.3854670539704195,12.975687808694017,1.245185144609633,22.206702851636113,11.027310394021328,-2.8359256972481055
4380.0,-0.7569742725082895,5.753067772106418,-0.5891117043875068,-12.826831012736346,7.079941038020787,-29.865837513259855
4400.0,-2.824460843829451,8.791753884268017,-3.5420908969306613,-1.5790800145623691,-19.710067781436372,-7.366695244463794
4420.0,5.170424427035899,13.975169620694764,5.403593768520122,15.968274092820629,24.827849453174064,25.574232416944096
4440.0,-4.853077267610829,7.359006075307294,-0.8716705174161934,-24.794255148554644,-14.086185676842604,9.640808792834216
4460.0,3.602994831004988,12.428545444505636,-2.776582818390738,33.394280880343224,-6.833792741150399,-25.50429966338164
4480.0,-2.092532595225796,3.73994047114918,2.128233069805596,-32.25942102580308,19.515810851878353,-13.775361794141329
4500.0,1.429649064555768,16.36514065130819,-2.020889425480501,35.92771636184632,-25.741586705554163,27.090379131667312
4520.0,-1.7109210455271984,7.3892422456104825,3.0527614879203946,-24.40305357448053,15.696261073145557,18.348474698310895
4540.0,2.769514748277623,10.337282242324655,-1.1332548878396485,21.122562237824518,5.0110965350456995,-21.402791112996578
4560.0,-3.3108085606065396,7.315784584163802,-4.161894941607262,-6.041919903678745,-17.800077725480516,-21.39902667485542
4580.0,1.6835463280071767,10.285563692891213,4.903220987733578,-5.18010414952518,23.868918195683424,19.234340445415608
4600.0,0.4777456214205421,15.179730010584931,-0.5348039928213475,19.857956863206805,-17.633950164132454,20.46942053830339
4620.0,-4.165733814968632,4.698390110514951,-1.4408076153211242,-26.475582510550474,-1.2045960725783658,-14.720725202424749
4640.0,6.393977325002575,12.444281167637424,0.46986072217596286,33.77906273058758,18.46016586153578,-29.513301149597158
4660.0,-7.568135764986455,5.726303591148404,-2.8226283162625663,-34.87809578656493,-25.007325985746284,11.75125373885766
4680.0,5.902799734121693,16.77096310878888,4.550192430744663,31.054889156837323,16.438267572904312,28.8490690685633
4700.0,-3.391267301388771,6.110152520927162,-0.5729613956679618,-23.97840042272885,0.7434247872780595,-9.594122726014067
4720.0,-0.6805231678602239,8.488329876028377,-4.345804735198828,10.294580399791677,-18.52455000034777,-28.485015823279994
4740.0,3.6106779004772855,10.162145319129673,3.904348095260941,2.8765137540884598,23.355521769186865,4.495406443601244
4760.0,-4.3427717079739665,10.592761099247994,-0.9720220218101742,-16.36565326335736,-21.436600101843155,26.297237851308605
4780.0,3.665982183773562,13.56794074865762,0.6371637546685468,25.391421392469233,4.525362389784059,2.9690928577316327
4800.0,-2.2411486786578267,2.7561283998838277,-0.07361738612132734,-31.217056915128115,11.403322295559686,-29.703818773078012
4820.0,1.5133506048365766,14.197263212988553,-3.9249598829041554,37.8183430583817,-25.88474836523183,-4.230244609745494
4840.0,-1.6044549660911824,7.363513260238538,4.928592767570874,-35.089158883403314,18.47222258752559,30.570782277436276
4860.0,2.7020148484385174,14.610580696908542,-0.0456371516133062,27.312135628505786,-6.4649861167096825,10.016148725956661
4880.0,-3.669416540246647,5.313724694745599,-3.5132772061470394,-15.510085839710563,-13.177021179848234,-27.61232846775174
4900.0,3.5982607855561874,9.36576154756547,2.741476343119192,0.17212649710961658,24.72422871336434,-11.658139660584764
4920.0,-1.227652939920096,13.352187983685795,-1.0473254718826204,8.446189221343879,-21.245681810526914,30.61763642795417
4940.0,-2.0007998183162545,8.122938422922164,2.268488641198065,-19.84229605336977,8.263605125835353,19.294138618885885
4960.0,5.1147814539727605,12.030705015534112,-0.2444638556178837,30.252656438139457,7.515003993763401,-24.78839296764531
4980.0,-7.5308784241709,3.2257740545853584,-4.526781903536352,-34.2508461134856,-21.35328444220184,-20.46007502972732
5000.0,7.2925258962345705,16.522042595453573,4.376787706323912,33.16175584990931,24.710294567415318,23.159913803937677
5020.0,-5.445908127876503,7.243215388773394,0.5501863590742442,-30.331512642582112,-11.098072292727279,21.649933037727518
5040.0,1.5613423062911302,11.781370796668243,-2.2092194154463605,20.14407891413381,-9.615963089184163,-14.401518250117256
5060.0,1.3593995870400981,6.351199247644769,1.4654916571710916,-7.906516513242233,23.640041214022048,-25.784744532305538
5080.0,-3.025653248109518,10.567748781525266,-2.634405291191445,-0.024048570427759763,-24.46826064087587,13.096131383034084
5100.0,3.73774578837658,14.422839300661805,3.652455812415681,16.859514479523483,12.883318354268196,27.57361836999393
5120.0,-2.3994556163843965,5.303060284985931,-0.0076080859473044715,-25.144430766018377,1.9411804071684053,-14.506985338808182
5140.0,1.7744684695916222,12.02553432756429,-4.867799744410118,34.89745135197082,-17.929930066968794,-27.55427530885608
5160.0,-1.9731946850248756,5.0175755180361845,3.3758703112066923,-36.106772961555635,27.63948746941213,1.5366480309926587
5180.0,2.5969337159172055,17.42967131367655,-0.23836302283300048,32.945070313231426,-15.165175611938233,28.024023455143542
5200.0,-3.3648380931215307,5.906149039218364,-0.6057207250431712,-26.89713449378639,-2.935576879845075,-1.8737514482237085
5220.0,4.009602753556792,9.313640930239494,1.184728431938214,13.390766447056029,19.276283011850886,-27.652287515893676
5240.0,-3.3144872182979874,9.145121261051461,-3.7682007755192712,0.07555089813051863,-28.335540303693392,-7.221085802238781
5260.0,0.5308766436700176,11.093663971845393,4.111313861530423,-9.774204289310674,16.744469122481522,28.45414041745204
5280.0,2.422899051861691,13.519939100103743,0.8779726813717841,20.341303831938983,4.550724688661796,3.1131789833935706
5300.0,-6.041276274447782,3.205150105384714,-4.756316948259268,-29.20538919766284,-15.548088790620362,-32.00521503931798
5320.0,7.325497802368294,13.810137657738151,2.565237910307501,34.50622229452208,22.384528433369784,-12.636688221653479
5340.0,-6.646701653723208,7.061225895069883,-0.7116723409257238,-32.16252091928949,-16.402538428256438,28.91250110917933
5360.0,3.8414501520454514,14.910882362504212,1.0994355537902705,30.32342825301343,-2.2648684601540836,17.410448369978578
5380.0,-0.7158416755879635,4.788338095093794,0.45591525451338594,-18.448543559698585,16.745043134421593,-23.366415432718476
5400.0,-1.9160106244206607,9.360662943270492,-4.57658908264222,8.223471844503104,-24.6849355351688,-19.40176669067564
5420.0,3.382417353201928,12.108616269964243,4.182722222444196,2.2357536451255,17.503406564458963,19.874336094612598
5440.0,-2.650584394188861,9.135997269424609,0.6871851141187229,-18.517811345494017,1.0334638102845028,22.220298665590814
5460.0,1.8576980715415776,12.32237615758126,-3.2285980182227334,25.859604789224846,-16.323475208541534,-18.790691374335005
5480.0,-1.3124017312477851,3.260641085873603,1.5522782579021666,-32.55581821893555,25.86973609495388,-25.865334050615328
5500.0,2.340771631098881,16.056605707638276,-1.8743472256267593,34.950300293213324,-19.781027857807292,15.124801401555125
5520.0,-3.70078339276758,7.420022467732144,2.648443876384812,-29.76009614286337,6.761534772709788,25.105344504077706
5540.0,4.761462008610402,12.661428818543994,1.006693594542879,25.364547334423495,12.485762594387628,-11.303649020530441
5560.0,-4.699114777569273,5.3970360288922645,-5.4069659486297805,-17.758985038680525,-20.672959655889347,-28.552632714736415
5580.0,2.8252006643056315,10.425790723422383,3.5442236411705124,4.43588920562239,21.728672895064065,3.376322975457774
5600.0,0.2555978167019274,14.050513031629942,1.2330029874214168,13.742304958652905,-11.158059506268653,30.970223409082244
5620.0,-4.307940022054479,6.244483496420004,-1.0719000932587437,-23.736914674140316,-10.060111706195256,-3.285267400844802
5640.0,6.772484094734331,11.416189072021709,1.1224251426107656,30.288506017755992,24.307334377267274,-27.182851939003754
5660.0,-7.520697878332514,4.724129633340815,-3.4925558270369934,-35.954056580838355,-27.740504284710802,-1.7025162071563698
5680.0,5.625941916118204,17.20809075169777,3.5958426428651076,35.892683903394435,8.462932934934214,30.236127571649327
5700.0,-2.4563974277344154,5.979187994119311,1.9068976456732813,-32.564678482858035,5.921249663283492,4.5048314878469355
5720.0,-0.08202434656763138,9.9440686040219,-4.9899070105597305,19.9182805960834,-26.187588444662083,-29.56466809941414
5740.0,1.6900552598974772,8.169699519694987,2.405334668638174,-6.29589684617732,24.55816572350441,-9.714922991201497
5760.0,-2.543202690542834,11.112577962267903,0.37690506016359465,-6.374741606276246,-13.419750122564341,24.517122743580828
5780.0,1.7139574498583126,14.053052388777866,-0.030552279219226125,15.00044237467576,-6.829891833994158,15.398111621008336
5800.0,-1.4293371485079223,3.906885035824883,1.4760632874390982,-28.165648521644872,23.092881215985084,-27.377222237228548
5820.0,1.3393012965144486,13.096457145492623,-4.906775774654966,36.38468704939208,-23.33014514492915,-15.345746331257457
5840.0,-2.418750416887843,6.719411812405986,3.2072766226075466,-34.67112094728656,11.048474184749665,18.815588555814816
5860.0,4.554672943999626,15.904657095237692,1.994071020459193,31.611653092327966,2.2100745283012517,19.22161928114927
5880.0,-5.683132588272515,4.9779866703836095,-4.2735235454506215,-25.3959724652942,-19.14222148281954,-21.00659048605012
5900.0,5.078459837898546,9.53917634826959,1.81098799436709,12.807655687785223,25.255660885143143,-21.25536754915328
5920.0,-2.060761752841417,11.060350054182296,-1.2006697697226687,1.5995342230462706,-16.582844987585755,19.394187325622518
5940.0,-1.3303869288007464,9.973412141373835,1.5815845215677469,-15.40954388629121,-4.286022378124656,25.89935167900737
5960.0,4.874620421369577,12.187483309460276,1.4682037119371634,24.117017496103987,15.49939479009126,-11.866251836753165
5980.0,-7.294583636237776,3.0940521528838563,-5.516626136814728,-33.91947892001235,-26.78585430727525,-28.921093291950825
6000.0,6.3528013305843505,15.817995484018914,3.2228405888583986,35.59932272526482,22.184514524845014,10.56002626897457
6020.0,-4.173763480857624,7.344809969936034,2.059179324903141,-33.732873645593344,-3.2685215522572983,29.095376418539406
6040.0,1.5164636240293692,13.174314765722613,-2.799157578151275,26.608064759454248,-17.818999669930342,-3.144145964606675
6060.0,0.6018975601492609,5.241386241578182,1.3400674434174775,-21.19057511838941,24.044504263516988,-26.33519116051508
6080.0,-1.5860751393118995,10.489581572790348,-3.0471297517320615,6.905338431318214,-20.36127812578922,-0.49701795460316045
6100.0,1.4022175514310735,12.91127457275232,2.601380623524545,6.161124187091273,4.2619015378691545,29.157340412932893
6120.0,-0.43122703372984683,7.80466657500285,2.0268120796502638,-19.705313170104002,17.868975019026173,2.0881361784019825
6140.0,0.7082374080343217,11.61700798601667,-5.31073873859405,26.303402960161577,-28.44494428095072,-24.17252137559628
6160.0,-1.7577852272958203,3.9418929892963606,2.0504844917906295,-33.87277211553534,20.620289714021474,-8.191664946326235
6180.0,3.7396393236580554,17.15941895621631,1.323618359152606,36.93912922273106,-4.024054497049542,30.334206777431405
6200.0,-5.513448814665728,6.691319223971143,-0.8350916839097167,-32.231436878254776,-8.737370340131406,13.030342500577634
6220.0,5.888627619694247,11.144925276601013,2.0401881249112073,24.960867585829337,25.49103028428728,-29.138289024523583
6240.0,-4.184620973398777,6.8298154904042985,-4.2047242922921635,-12.597042287680663,-26.034683121346834,-19.024327031472502
6260.0,0.9412240512529078,11.605879957626655,2.1378337984192664,-0.20281621368759806,10.292460431181642,20.631402065100684
6280.0,3.181117538761246,13.57273838351989,3.226328187068364,15.8894048097033,12.010999382149537,15.226554938873766
6300.0,-6.0297931719403755,4.847483593543193,-4.733408961563434,-23.19522325140089,-21.8852190710468,-19.05979040124993
6320.0,6.771229062793309,12.532304360165691,1.7417588271674342,30.909183414110608,22.759664704806724,-22.558167121468145
6340.0,-5.560325331816329,6.308440696996905,-0.3496928709913397,-35.279571485112356,-9.884091771398673,14.577709414804048
6360.0,3.560549797939085,16.765480117786723,0.7641062637665552,32.4889626892806,-8.26327815568714,22.066136402965032
6380.0,-0.9963921616259089,4.65735092713328,2.135605317992996,-25.452327026340217,21.58142691940321,-14.873333515097663
6400.0,-1.0560800308577427,9.793580654522108,-4.9129288119139405,19.080227982331387,-26.374235650923147,-27.98740177867499
6420.0,0.8161857948920669,9.814572240797238,2.192681971645343,-0.969745525459695,14.932818972226473,9.473600136052681
6440.0,0.01202217435638192,11.417553333398642,2.400897759131248,-7.927921505614531,7.828997225676005,30.032314626388203
6460.0,-0.010829338206414024,12.096256429654835,-3.5419801381923444,16.062403767908073,-20.02919560607111,-4.872638782793283
6480.0,-0.628291845211227,3.1987862597632803,1.3241561511943216,-30.123472404529377,29.21744801480279,-32.22030312174136
6500.0,2.496068044701378,14.955315107583065,-1.6272250596698887,34.38318553542238,-16.1496383124825,3.140127756829034
6520.0,-4.930019040964274,7.120185334190165,1.4418675816010527,-34.96403364439472,-5.444999776414663,31.32109894437656
6540.0,6.395950205350734,14.050003526672178,2.852074164637793,28.97987402978371,19.276978473880853,3.7206317829766484
6560.0,-6.02218844828573,4.491066884445569,-5.710350067230719,-21.141953607063076,-24.555032239792457,-30.67586359129408
6580.0,3.044897463629285,11.305837874918987,2.06400271258297,11.781010611011153,18.2341581262129,-8.693377849760921
6600.0,0.5506125657270862,12.280309153711235,1.8339368583893452,3.4972546967771345,0.8077461385101052,29.55640818291986
6620.0,-4.088261229345506,8.51717136159153,-1.5708648767608193,-15.910424048120257,-20.888747134777844,11.786653070095234
6640.0,5.980113442716462,11.141290653620231,1.8809432779000852,25.91697136942752,24.953987690217094,-29.10538073062827
6660.0,-6.532400397063603,3.549271494401397,-3.026171468479475,-29.73923369541881,-18.729872610244612,-14.066432208252477
6680.0,4.42839515005106,16.864742945144496,2.137741712949598,34.78153924072192,2.598340249960571,27.28893222522254
6700.0,-1.9816647860734875,6.559622298504121,3.570727423877591,-30.180167016068,15.732289620171855,18.909737525703065
6720.0,0.3842317669085034,11.874569620342601,-5.079825202625549,24.112300514489895,-24.859922241751196,-25.025761623730148
6740.0,0.041330879515841634,5.735247571716648,1.548786921022141,-17.120266847756305,20.565421471994625,-21.441825105612626
6760.0,0.0754408459732943,11.955300530740674,0.6515832474706288,6.829682240460443,-2.0798151334284443,17.62561986353375
6780.0,-0.5241101845608885,13.052238326828528,-0.17149333988297005,9.326044077271444,-15.982279548037758,25.547926136511354
6800.0,0.11340927344575535,5.725011355457618,2.5336411648603656,-22.37778963432828,23.64280431993344,-14.279166637986313
6820.0,1.3629112270182304,11.650832743547562,-4.520516636100778,27.749230432919898,-20.5198485666381,-26.97703528875358
6840.0,-3.81285534122897,5.7925473358186865,1.636504504647892,-35.669040706711975,5.855734188680322,14.243620096797862
6860.0,5.6596969782925575,17.066984287297554,3.814293500253683,35.18321826869324,9.719050525235698,26.87658186255849
6880.0,-6.9403581061193265,5.287574160848722,-3.6393012279004364,-32.20307034055077,-21.63865672037618,-8.113559532411001
6900.0,5.519284095916428,10.478764423610826,0.8656611237387714,22.403344570418476,24.13368020833984,-32.235328508490454
6920.0,-2.3109737288889143,8.531829083263016,-0.9076284254779075,-9.199768273357337,-10.8054475752994,2.1023769229684124
6940.0,-1.4425082806559486,11.725480333056291,0.664066070705399,-3.8514043233675164,-9.975019086059023,30.0867162220142
6960.0,5.061637132442771,12.214585175152994,3.659224223383014,10.975462343777998,24.269243725247208,4.208202688161848
6980.0,-6.122142917390768,3.7528416905171285,-5.138805122825473,-26.383207437733756,-24.61455348271812,-31.64075662800253
7000.0,5.710572763258426,14.04575183333325,1.1239406381495196,33.37297609890689,10.98368467130672,-7.7357720193651485
7020.0,-3.4811229702496123,7.5658126607056815,2.6855960886026575,-37.61045581319208,7.92641541239946,29.211828584924756
7040.0,1.5149467473075813,15.243860249025722,-2.246989068997848,30.3231558759529,-22.18180199767392,12.587386486807087
7060.0,-0.8232404392426138,3.8024122482717124,1.5658423325054656,-27.558176564723965,24.777660523813648,-27.095912111486665
7080.0,0.5890431451890972,10.947850244984146,-2.8125160327552527,13.564886836572821,-12.43007634089792,-12.826684954752823
7100.0,-1.2276763328168456,11.509734443569828,0.7716786451208131,-3.0700980537400797,-5.708597314389146,28.14013509954925
7120.0,1.2628192834143845,9.519878555683663,4.118157732942147,-9.406481564413946,23.07331210919503,19.10891831401605
7140.0,-0.18783167677784965,10.703732008430178,-4.887569244625365,21.411042978248314,-22.356874224420224,-18.89002377104725
7160.0,-1.7281169414083342,3.589508633153689,0.6455137214812673,-30.388420432396764,14.784326162285872,-18.813962999979687
7180.0,4.960879976554924,16.51876692792368,2.1271098173994223,30.671837135418663,4.312757455439188,18.585819650552033
7200.0,-6.904745756220229,6.805730938374132,-1.4843713751171845,-36.21088041669353,-19.352931059743835,25.334913729282516
7220.0,6.77837866411508,12.564549600451972,2.3845467533563145,30.73169948620804,25.934057503888212,-15.080222487032811
7240.0,-4.523785874019915,4.739910460074568,-3.880781101091222,-22.939908529278487,-16.278366454248193,-28.719956220079098
7260.0,1.4191322257840246,11.910161405281649,0.5268603939485963,9.580697334120956,-1.5690166319368795,10.526931892349898
7280.0,2.848041528749108,13.026774056631826,4.422223971848618,3.109012745042662,16.782526554594092,26.517665399917764
7300.0,-5.204184288962905,6.878942595185415,-3.899205579852514,-20.39599670634633,-25.644369425794387,-8.328997986532531
7320.0,5.457418894768046,11.109444279783796,0.6279397627805111,27.23780509057648,20.241908817333794,-27.89085315717792
7340.0,-4.105398964297424,5.807555073291182,0.15839424720064604,-30.855839631406667,-3.4314346695830564,2.665224210300793
7360.0,2.507364529633756,17.165922438997388,-0.5907131798752573,37.67381868414958,-13.110292679189921,27.637213812529684
7380.0,-1.045873662309911,5.220961709192406,3.204760590183298,-32.27873224439973,23.05969500200462,1.6330135556152792
7400.0,0.8840189258077833,10.840964637791709,-4.694398526364406,25.621235288691356,-18.834754353919347,-32.11999595228572
7420.0,-1.596222892926996,7.50326070186752,0.21314920143496957,-14.62960927946052,2.1910576580097008,-1.3776715986065948
7440.0,1.502287976987858,12.750395804828294,4.016541715047575,1.6976066229608942,17.58927247738964,28.885161368500494
7460.0,-1.8011495853391961,12.284899764484166,-3.154624201471511,11.467145032420738,-21.414980245183607,10.598771221327286
7480.0,-0.9000077486767214,4.245818837923448,1.0731041201207476,-20.072304342294608,21.285543688759375,-26.655042179077025
7500.0,3.206013346491155,13.399848181099959,-1.6603763080308331,28.411790741701296,-4.863623091645201,-14.908923379715286
7520.0,-6.049012990283022,7.028189879883685,-0.3174080424241552,-34.82692962505822,-14.315590326322045,29.02068484088926
7540.0,7.185769885642731,16.498846298992497,4.656323790317358,37.09665982823367,25.23481349770345,18.51643925541128
7560.0,-6.1093439761290655,3.798891964680066,-4.46038610370073,-33.529111759353036,-22.192816745150008,-26.776570633197988
7580.0,3.557783229799836,11.074846956966063,-0.14339764575153913,17.534575181945254,7.937900173507446,-17.80511967238046
7600.0,0.5628328182500576,9.883409588118312,2.808687800147828,-10.292822101410575,13.826091984540833,20.99971264030444
7620.0,-3.394740084085104,11.311734007440434,-1.8239318598171683,-5.1391352220331505,-22.561657531623478,22.494030397619998
7640.0,5.1366726265324205,10.989272680066204,2.135307669007896,17.64158102630304,22.26614652718837,-15.273797426577028
7660.0,-4.915268104840289,3.9343736734275288,-2.8750840771603765,-28.876431374483374,-8.33803468736221,-27.571786421160116
7680.0,3.1705073977690503,15.635142255564984,-0.2884707146066465,34.12240210870211,-6.486897144668516,14.689087754655482
7700.0,-1.645224406689302,7.466748477534773,5.057498534497842,-32.00964650638689,24.449055909707656,28.287123284994994
7720.0,1.128441904610903,13.649518788546255,-4.187453271801544,27.31705938747075,-25.790107741657444,-11.511021177729251
7740.0,-1.9386395738487538,4.186684362598213,-0.0472096234953823,-25.619494378486827,7.232699432332747,-32.110537697195596
7760.0,2.445202932312095,12.443137095012547,1.2453448815324377,13.965616264415328,6.307151092759538,8.202073914362687
7780.0,-2.67886850196621,12.436175152352957,-1.1668153835883819,-2.901222277209846,-20.681959753907037,30.93314174084728
7800.0,1.1181036384567895,8.080213614462,3.3805592874605095,-13.87421785924824,20.953782395736702,-2.9662459946591158
7820.0,1.2844267252758128,10.354041615789132,-3.9870763548205437,22.145907449780395,-12.519961976119598,-32.489457874279545
7840.0,-4.511608773657612,5.286885211513905,-0.5348023144342441,-29.9068129598484,-3.5087319988566708,-4.015336013856611
7860.0,6.8799631519072,17.283613605511658,4.465794319063469,35.54018543540354,22.06663541308423,31.641806302782765
7880.0,-7.3636718363918865,5.6672137738332475,-3.113112514579466,-38.51979740824758,-21.600965813119178,8.211658725889235
7900.0,5.505150276198289,11.438524238810654,0.5146021720622648,29.445987708907573,12.405503588457856,-28.11273692409561
7920.0,-1.787903943144649,5.872652640499011,-0.5195665884519628,-17.842339373299552,4.371429059329414,-11.957146733338941
7940.0,-1.4502599352152221,13.029984083228051,-0.777337602628617,7.6544755264256175,-20.36204419358422,28.947544873284315
7960.0,3.54706543935856,11.866352215460816,4.572116308037581,6.94282269446092,24.090084499265352,14.841113886452911
7980.0,-4.309291065776083,5.31731990846435,-4.099403711515403,-26.28708053552739,-17.95070710983002,-22.96963765377835
8000.0,3.5336900200971835,12.36418989628745,-1.4773880922840015,24.81612111547728,0.10419288568286345,-15.716238644230451
8020.0,-2.2377848315876796,7.262158727886228,3.659644387142993,-32.192918037880325,13.482465595019235,20.892781637413954
8040.0,1.6626637277136793,16.39917287083436,-2.2842513095498873,34.50170070014874,-25.44694259679748,21.458058429229837
8060.0,-1.7391488671191542,3.7476958386286507,1.5760138292208188,-30.066987718525294,18.397739958853375,-15.417922042288847
8080.0,2.7005295520586654,11.018644424096003,-2.309549570829534,23.678625969904495,-2.4786024342030872,-27.151486114756004
8100.0,-3.4119737671872232,9.71814770291087,-1.2620585338586823,-10.641146789776295,-13.923154051911638,12.985136391714033
8120.0,2.7826722439431557,12.378286798752475,5.441684948618901,-1.8274250916005181,24.850366818795088,27.905232333696325
8140.0,-0.88058906138844,10.647087680478068,-3.3682132187523948,12.110351491509103,-16.32007720788917,-8.900724554455897
8160.0,-2.1470017751667405,4.313066144198116,-1.2094931274904512,-22.413038453565463,5.131377439314829,-28.831702757672975
8180.0,5.445714029732556,14.755529439116218,2.4586342084825272,29.084504843308057,9.843363341232033,6.934747787540158
8200.0,-7.4091670767603315,7.020978641136406,-1.6039071762415706,-35.49940400738424,-25.19949739902526,29.624192885447375
8220.0,7.125919662329202,14.369065399794225,2.775876466542258,34.39782144560147,17.95734569473018,-4.052197213815349
8240.0,-4.532082456892333,3.2220746492490004,-2.994986997117704,-25.967144162451604,-3.3245178115253164,-29.397330706984718
8260.0,1.0529271409463075,12.401491893498216,-1.6770804284633494,17.940699488595225,-14.259547258471182,-0.5195805057695444
8280.0,2.533708245753746,11.306611473388466,5.465890648464186,-4.4431695852683895,23.48471229404149,32.46809115460704
8300.0,-3.7200186400835134,9.040909606730997,-2.584844946463324,-5.692432956030902,-23.32782098132645,6.748130595487764
8320.0,4.091043044259705,10.331071238320412,-0.6024742688838611,20.752075565898178,9.450586081144303,-28.872446958758157
8340.0,-2.840362776347356,5.262373335830481,0.3755611259921027,-30.5110081056354,9.264899085906224,-11.018266276358505
8360.0,1.9501261400733405,16.95915037206067,-1.1753479863047358,34.8030457140231,-22.18937811756981,27.840748453513125
8380.0,-1.9150896027272197,6.358218145289963,4.106988712563371,-35.25331101295811,21.63839970227503,10.802216021328782
8400.0,2.167129397250986,12.003079792418283,-3.1358515195595067,29.575985394633772,-12.687596660453826,-26.877198751861332
8420.0,-3.6980821153252648,5.094489429507397,-2.2678091316653726,-23.75675252813574,-6.097713572189084,-13.508092925544213
8440.0,4.057622052221366,13.198704778340941,4.605213797638846,12.171273312354447,18.66150484323269,23.041325521523703
8460.0,-3.0224453384633785,12.193516259071487,-2.259272015776246,-1.1423812104661148,-28.429415543597546,18.310381936368323
8480.0,-0.3558418092802915,6.132238503589554,0.5314220654200696,-18.512138556098346,11.685064533256122,-20.109614863863953
8500.0,3.5873936557345214,11.128441352743577,-1.3036391456809855,23.28500712430642,5.2635561177371555,-22.761656540954124
8520.0,-6.439061629690436,6.774715046316139,-2.197759046579759,-29.90900587061695,-19.886754432769568,15.85566150890452
8540.0,7.992919750210658,16.857499743537378,5.25370343756341,33.923518241259224,24.627626993318707,25.277587079638884
8560.0,-6.296271797951669,3.859696061238101,-2.8018571215453534,-31.963954878681644,-13.125752366518272,-10.464058736790719
8580.0,3.3058245563641964,11.21192250412808,-1.9230704031526296,26.222275087503842,-2.8649112515508577,-28.100414720475477
8600.0,0.10351144286253464,8.267152473449423,3.0207506263631436,-13.081505638573441,20.767748796872798,8.424666326236265
8620.0,-2.2872104367060904,13.243757995332068,-1.4361085374063225,0.9590115323533506,-26.07422364394617,31.29146183697504
8640.0,3.2723060867813487,10.55579086325715,2.191726280259639,9.13263621884821,16.693716539764207,-3.8046371899944584
8660.0,-2.5099546395234835,4.297618631856595,-1.9545637464565866,-18.255322413506313,-3.9769871429073955,-28.91622840322483
8680.0,1.8646869507468236,14.022920578281608,-2.1842716020552833,30.365903439073193,-19.81626942343347,-3.612667826284496
8700.0,-1.5992114112749491,7.104411685647155,5.712331851117835,-34.55887059298103,25.91282831244252,30.548317015766706
8720.0,2.0568141926421037,15.050310294761974,-2.2732130560576547,35.164721436445454,-19.44814762799619,3.823268829239642
8740.0,-3.4567852533488277,3.023240170020478,-1.6726861890772984,-33.38363393295569,2.946993035646702,-29.240158543082384
8760.0,4.225285780185093,12.407654473654373,1.3619107493277172,20.97911280131538,13.11623772749796,-7.461593700586142
8780.0,-4.189703031891855,10.576219377741186,-1.8035455238728226,-11.519091152532303,-25.02760366476231,27.917882729981617
8800.0,2.310583318135512,10.247101713815791,4.002222258017368,-2.2462877898800655,21.90832734623809,11.939686268460413
8820.0,1.3077318581567974,9.87071479640743,-1.9901165247306498,16.573459894544943,-6.031214908483613,-26.84481935186142
8840.0,-4.878907696129445,4.508436905973742,-3.0594139976953056,-28.65792815008021,-17.14226180451713,-14.81831858683136
8860.0,7.471032362649684,16.514602617147577,4.855540870889815,27.57218367360457,21.90049907647188,22.845713339946336
8880.0,-7.201505494690187,6.858753508662314,-1.6614455664673,-35.134381269221585,-20.103306215200348,21.75693096441751
8900.0,4.934798373229814,12.843459549550278,-0.5398540389157956,34.648695171011795,7.162288561089509,-16.355474470495516
8920.0,-2.3401281796344966,4.255409180495256,0.08459477577121798,-21.58932907275407,13.558729377658448,-19.526270543869835
8940.0,-1.1278243534432741,13.578553955203216,-2.147823050049529,15.808317154898138,-26.025969360416603,19.588545541753863
8960.0,2.0167057404342144,11.474984930620728,5.045668372626692,-2.6834376444645103,23.265805803133635,22.480482678677735
8980.0,-2.2165270713821874,7.528321320279813,-2.3264088105546707,-12.436040945171813,-5.23731257815878,-11.952270161336502
9000.0,1.5291524778031667,10.417059364525938,-3.1124764752127514,21.592971667584806,-10.068198492373526,-26.921890988425492
9020.0,-0.9463392505051054,6.2667269276937425,3.703513952124476,-32.66591978290618,28.613816692199205,11.19881762844941
9040.0,1.7414425235822646,17.051686063851303,-1.718997322411707,32.94215687677523,-25.38995121583671,28.88667107220955
9060.0,-2.9342649890411243,4.444282498783721,1.2483626019189171,-33.37243626261321,8.55949739870369,-5.510817611573099
9080.0,4.610987302701736,11.304809752277531,-1.0719500303459677,25.05383410979238,8.603071970072971,-28.498473100229756
9100.0,-4.528255699562697,7.076222418960747,-3.022010850918969,-24.768781478329206,-22.54906896474809,1.738900593542129
9120.0,4.082500242044904,13.471381174312494,5.363747424020699,10.389240935363993,25.590487065267244,32.82428051667467
9140.0,-1.05857927991491,10.18914364667231,-1.836016844630945,3.9270865032138844,-14.888262001926378,5.98652329291454
9160.0,-2.608708126540796,5.08942986394606,-2.6532354018028967,-19.344229156604538,-5.2876478431976235,-30.665524361625497
9180.0,6.280601388436934,12.787153795995046,2.065166610920367,26.075094093384145,18.06409229152003,-9.505059444054472
9200.0,-6.9353723129307125,7.618263459340911,-1.5244849386236305,-31.444527849470553,-24.983831810334262,29.029591186458628
9220.0,6.22726353170674,16.121158689593134,3.2369781685822874,35.1450174930495,16.280426206078907,13.40071887791905
9240.0,-3.5352204729999843,2.84447067886103,-1.5195794368395366,-31.53374652085312,1.827631637572451,-28.142573913441968
9260.0,1.1691767882146706,12.385654533619027,-3.6309427962030663,26.78504097427457,-17.64475862647058,-11.73292195088328
9280.0,0.8962461736104971,10.039440574601997,4.967721315521438,-14.205392164635198,24.9802598419309,25.039875812120187
9300.0,-1.9467491736390579,11.68998029821376,-0.9236754746273549,-0.5446030247491951,-18.880095974613596,20.619580418796176
9320.0,0.9117002154908599,9.556033187590621,-1.776565869780145,10.506837620463676,-1.025348986289013,-22.627786019388335
9340.0,-0.5167248709774497,4.712383052826309,0.4895695422376174,-26.648788223041887,14.947692054860749,-23.258856693578267
9360.0,0.5976528002057742,15.734078730973867,-2.4292586272709427,29.982823985162,-24.095014508033017,18.928859500052113
9380.0,-2.1013523312643065,6.960052800562155,4.571762671571048,-34.46418168722679,19.324529226831498,26.36841373770194
9400.0,4.000369791724859,13.34617631342563,-1.5798914907951802,35.95628906055957,-2.4997870429812856,-14.422823207897418
9420.0,-5.305501131039318,3.657608480341627,-4.273833179287652,-25.803243249559248,-12.638656707095004,-28.99453209427604
9440.0,5.798687162019287,13.251272746404897,4.263835943250372,19.97458600537248,23.590731017563833,12.680083741881456
9460.0,-3.2795989904934797,10.809445846990878,-0.9900843103526176,-8.531480196097004,-20.41652533044697,29.13531194275099
9480.0,-0.02296701545466655,8.599059504260937,0.11690840217717881,-4.556824389460508,0.7540891112550092,-5.150383940581832
9500.0,3.807802362699358,9.562157928607546,0.0005720724861255216,18.586124400792528,9.596219586288846,-27.141984842370274
9520.0,-6.387019847409739,5.946883185213667,-3.1197805282064754,-30.733445005681507,-24.611021122780375,4.051686085960238
9540.0,6.871345176314738,17.021686746549932,5.337552030920828,33.58540954820673,21.177140384825158,27.396865971181754
9560.0,-5.4375782484806585,5.0275665420472375,-0.7572254556075904,-37.74839259029044,-6.088056526000407,0.13697980313545255
9580.0,2.52076511627118,11.553189721741319,-3.2106075705834045,34.14677458356829,-9.47566630649568,-30.46236191395538
9600.0,-0.2785192715182324,5.592898566460713,2.398952996562281,-26.434150824740204,25.076815322079835,-6.319039937108766
9620.0,-1.1105448582403914,14.12173996050961,-1.316065292188008,13.635544481719336,-21.930640365943376,28.267324193536968
9640.0,1.0410633891897367,10.319071103564266,1.7587206772296722,1.0449651041747774,11.055991298679245,7.619013108099807
9660.0,-0.5061228240583211,6.292181590812405,-0.018748960527134484,-11.68379376549277,8.476673249399687,-27.72043959199993
9680.0,0.08321974915719124,11.477294934794509,-3.8700223830935343,21.773324790917577,-24.89855825188808,-12.687149927532127
9700.0,-1.2709034206029228,7.619511940324951,4.9655184578498615,-33.53628561663777,24.50756211726054,24.510519790477982
9720.0,3.3716328753564704,16.342367923048684,-0.09710035746194251,32.90734943689796,-9.009852577847553,15.001197769792562
9740.0,-5.2905336919776005,2.819897721876915,-2.639444936151718,-31.77764962500928,-9.548130114907352,-19.850957253614474
9760.0,6.271690865690172,11.919295627455398,1.8239669957688558,26.596467029743465,21.88824834826888,-20.9262652977636
9780.0,-5.3651050205998265,9.108079822323464,-2.4435839675335553,-21.078033537817994,-27.48438189326903,19.706382371020503
9800.0,1.8195083901337497,12.81085506729229,3.349065420935204,4.7486979364979565,9.709952586871982,22.934609836806214
9820.0,1.471436677301391,9.098039351424505,-0.2499285188535515,1.799554635557727,2.9024387572635764,-14.788825415024577
9840.0,-4.802314715532923,4.763854224483765,-4.51512309770338,-15.163476579559152,-22.653195574770443,-25.45056439701043
9860.0,6.097580223483422,14.270387695348937,4.400413926716515,26.624016470273553,22.53946418488317,10.575750283256253
9880.0,-6.180788765133268,7.282135760904552,-0.35788025313224886,-33.03819762437489,-14.492802181304292,28.89702289543191
9900.0,4.535044668480512,14.265771396902009,-0.8919933689701789,35.34736055179282,-1.0987633284823353,-8.935385066815224
9920.0,-1.8142062297563961,2.7178446139848065,0.40252919501387324,-32.97920320999418,20.143106452011047,-32.42099245741131
9940.0,0.0942237941056917,13.798706964312947,-3.5977505908721055,19.621678517577138,-23.84495588846972,4.187337061292456
9960.0,0.5013507108679738,10.571236878618832,4.429356885212132,-9.44609688853744,16.56345886269466,28.7696315420275
9980.0,0.03405910622145294,10.134418471741483,0.14330120964266427,-0.30916891846523564,-1.296717993007293,-0.1831013052480809
