timestamp,ax,ay,az,gx,gy,gz
0.0,-0.22592203672738398,9.875856658068184,0.08895620851264607,0.5161915458744941,-0.7536342179892019,-2.5215840919424104
20.0,-0.24163008941322422,8.993924751474028,-4.15042815659328,10.047270924709178,-18.152058779702585,-27.460380620567374
40.0,-0.01795572992999848,6.250310619781988,3.1468544666358156,-25.09032273945437,28.272493173208954,-4.878636192446619
60.0,1.976495383725495,16.635641419221077,-0.8400505855908281,32.726739312315694,-15.391873832099602,27.41021237421817
80.0,-4.2641918120692335,5.796617579649384,0.7428855009110054,-36.326540918449915,-0.6891539978852816,9.141720291002054
100.0,5.921783895432056,11.919405495158577,0.28179029420542195,31.62195984601601,11.635736781991836,-29.33045355231598
120.0,-6.456738041706983,4.518548349040071,-4.4508225705527975,-28.303270483460174,-28.04200599242279,-11.608232126865497
140.0,4.995520266050129,14.710871366219777,4.2887376599969285,16.02954069813917,20.7579465161957,24.368945916070796
160.0,-1.6250930531177585,10.617268253510227,0.49042206784415054,-7.042779405715514,-3.8394287580853623,12.856747758656713
180.0,-2.587588698959063,6.944727031761018,-3.4228557967130753,-9.206512647715282,-10.333302474567471,-22.715701032811435
200.0,5.593504062395604,10.773455765890095,2.4951424048673845,18.71908308860026,25.936661693053583,-23.423709622201553
220.0,-6.260902216089217,7.532552141819995,-1.4679529492178103,-26.87930418279608,-23.036631496576387,22.009653557934048
240.0,5.446797406314566,16.76932287514432,2.6161024909462434,33.44263010670955,4.6047347729383725,19.362002205904677
260.0,-3.000110279916249,2.8703165920800937,0.3762214226440231,-36.69316283050754,11.208044311248909,-18.24825570819376
280.0,1.4367369583187646,12.111322395125791,-4.878584842264602,32.48173915272254,-23.8723395008524,-24.504799474201842
300.0,-0.07810601306946288,7.801708918374075,3.9727662710664564,-21.62437524093351,20.442776136305287,16.069050123185516
320.0,0.12438436704760175,13.576504202442193,0.2714167747536745,12.611181219935036,-10.89833050526056,29.36418800214222
340.0,-1.1587233311951293,8.624462230841711,-1.8785247086112487,-2.530086675626466,-9.082379472544831,-6.935021496874635
360.0,0.8104275217754964,5.628234336415417,1.4795466429198167,-9.569626341380426,24.283636355026,-28.47419862018892
380.0,0.65132455977486,13.66093580595146,-3.068471197739057,25.264121034691147,-26.807636359965798,9.236073042998754
400.0,-2.5625116311676415,7.66844911246351,3.7295190909695024,-34.45434145445878,10.156587857552125,27.886154890626955
420.0,5.248040966824835,14.577688384150841,0.8210595532370305,33.76835528177992,6.345635306262786,-1.093105075519492
440.0,-6.791591950434796,2.786642440516825,-4.928039984989598,-34.59000723830479,-22.740062838404896,-27.78907522065812
460.0,6.265476562893959,13.3475973372384,3.160661136943709,28.268794576381552,23.176683678182588,-2.7263286902946815
480.0,-3.6521457867943465,9.625152275209492,0.10468616451771691,-20.826717481016896,-9.174563103652456,31.88243526454375
500.0,-0.04600437908927538,10.914008257080049,-0.3400955601649609,3.127147894304188,-7.456654362565136,10.322376981687697
520.0,3.123109952914946,8.732770471496366,0.838960103965261,5.652504316181655,20.07414402897181,-28.470250829105552
540.0,-5.450421929586502,6.227271731847432,-4.065315887100487,-17.87164823010899,-21.066042356769508,-9.544187586469883
560.0,5.944163470662815,16.446022378917434,4.156808026300891,27.114289261060947,14.834347205157105,27.121142696545647
580.0,-4.284654169955997,6.033219381413243,1.4515529371397398,-29.62093215212903,1.2254719138723242,14.24183794960642
600.0,2.3530160790413692,12.997498990091035,-4.364476572743117,35.49340885879897,-21.150606060575026,-24.827618384307186
620.0,-0.6886293444215448,3.703909059436126,1.862148456765096,-30.65752623743048,23.355220713629436,-24.456420279801268
640.0,0.8099995818708461,14.76547434673568,-1.114472275342227,23.13876971396041,-15.615451041542455,17.33502595695414
660.0,-1.412368051552497,10.141646723265325,1.3609616688397619,-12.375103568511996,2.1966225567568864,21.41515059881725
680.0,1.7376733006063687,7.7428466657216495,1.0100459116100353,-2.5409951425519255,19.170717762010966,-16.363301490194164
700.0,-1.0123307339518812,9.997159279220156,-5.078225077570391,15.87473299392987,-25.785581395077322,-23.429740277746365
720.0,-1.064123268929967,7.5720030393896405,3.769091915007789,-24.40234111700329,19.820787755588654,15.936019430654738
740.0,4.1117332985399555,16.65147595185663,1.3798216626129296,28.53822581753657,0.25816415804043125,25.60705368665216
760.0,-6.964869593197589,3.8505184306163622,-3.0072432591474163,-33.201777121003275,-13.097014771891992,-13.829018914775231
780.0,7.120891192830207,11.858895518798212,1.514804480318953,33.19678137806985,23.985497520304886,-28.390544965327223
800.0,-6.084277720968258,6.708643264364158,-2.304727073394255,-24.871627871911837,-15.204351558288842,6.169490812616499
820.0,2.7830414065393936,14.514642042017513,2.5160422554010378,11.974000874240176,5.121580856501322,29.45203362813818
840.0,1.3868364240291484,8.743585023496426,1.7977545691056973,0.7540906789584789,15.483258485229172,1.3677382927070303
860.0,-4.185956463091788,6.392925330399817,-5.599410356226241,-9.728549835525822,-25.689280064467567,-29.528239109231826
880.0,5.100198006228726,12.69862887555035,2.95069699342067,20.53900114574853,22.29787298712066,0.8311906865695673
900.0,-4.552525271099237,8.236161024858554,0.8496317256502366,-28.51534771569017,-8.347263425707334,31.345714201110873
920.0,3.414167230625874,15.071843700916668,-1.6943926004466523,34.50562685461141,-9.248545507691846,4.500788332488513
940.0,-1.5287884423000777,2.166079045802546,1.2109609331083453,-33.68349987520784,25.549842626513044,-30.598162796660628
960.0,1.410242233060889,13.304365826106725,-3.9295683783849906,29.781600784435533,-21.266214073679883,-9.199962782706482
980.0,-1.6183971504678658,9.550962624844688,3.032405187998787,-25.106669718796873,9.191604264165585,27.042110910433017
1000.0,2.327852062742233,12.48566327475704,2.515587387266108,13.145753766215503,7.491484785178823,12.383345015019867
1020.0,-2.6528936568206194,8.237846511535356,-4.799292704391449,4.735834193337048,-26.941708391483598,-26.173018975073962
1040.0,0.45844118974384235,6.140921197258357,2.385126737461891,-17.43009758254417,19.835186743485206,-20.12049333115369
1060.0,2.113180254271899,15.337912512674512,0.15299822574431582,24.105638086322102,-11.736072478090641,23.608290057601888
1080.0,-5.121514203266649,6.857812646292729,0.2319077845396879,-31.80420813663666,-7.649652844731185,21.067261120169224
1100.0,7.164463461641847,13.365089303761037,1.5937059643697902,35.60478269811279,17.728190376247053,-19.036445720207734
1120.0,-7.303968647150594,3.087559665711199,-5.443326772438107,-33.11944772580961,-21.241512351298127,-25.333825597872792
1140.0,4.623979095325997,14.816635616684867,2.8945335751007004,26.97924199607776,12.428241162857116,16.650740901629298
1160.0,-1.2786855513592261,9.721245386563378,2.0548441387567093,-17.198931356931503,4.104801974655133,24.446698060778708
1180.0,-2.158106863698074,9.475937709326118,-3.8860210404819173,3.7721828791164027,-19.184563757861138,-14.89911429407824
1200.0,4.464276372010444,8.951683846238792,1.7410164807344248,9.08446776171395,23.019501529765574,-27.030813303201057
1220.0,-4.228539266484624,7.509828180043799,-1.518118084718377,-21.580640098093895,-16.743082067074504,7.128628789540079
1240.0,3.4638342975860907,16.69021705295065,1.3641053407698012,31.85443947868955,-5.006206839352597,27.53454611796526
1260.0,-1.907124187795768,4.670295738798435,2.291079350037538,-36.15989463524231,17.86114597674667,-5.930089951746366
1280.0,1.4322503219978087,12.367353346141092,-5.744082843985407,33.19100967290348,-23.282871779183164,-28.826104615408468
1300.0,-1.8803017740019115,6.175761733715473,2.128705106414079,-26.605323961719357,19.202398338042958,-0.13362022252652478
1320.0,2.937244102370168,15.525995868739347,1.7846576905205962,21.862477338901428,1.4601839521652886,27.638905696822786
1340.0,-2.8633725171134317,8.777597231972607,-2.0965886545247865,-5.513564060918288,-13.572213346165457,4.528158691887323
1360.0,2.2142769980248533,6.81891423084881,1.7908039949038572,-3.7959587190833233,25.043353024151347,-32.03772365620158
1380.0,-0.27335544299514203,11.523233832871098,-3.149698618379978,17.984924922025876,-18.0265142283905,-9.021281844826762
1400.0,-2.9550777961411705,8.48700861200255,1.8383784541156631,-27.11007927377256,2.579310028462626,28.6490692633117
1420.0,6.2909387871749365,15.068136219184577,3.0257129147036403,35.03668202567849,16.56160199211367,12.559681278191196
1440.0,-7.615662373911677,2.861391255889842,-5.247292373073124,-34.69817985095968,-27.16705517130849,-25.98667343209008
1460.0,6.591225169703691,12.854259137876296,1.836889859259769,30.3863387244998,18.581976971356287,-15.648239520608511
1480.0,-3.148508969226063,8.378039405418937,1.0549666889390708,-27.489285475339482,-4.892412634312006,25.212872488026743
1500.0,0.10126466117779775,13.431588064813447,-0.8735796034532307,14.396044070295458,-13.713001646290317,20.152012297703642
1520.0,2.971583032860868,7.5726876644563115,1.7519238918829796,-5.335337867728493,25.9907659915046,-17.28909610226339
1540.0,-4.068123698307632,6.087302995633893,-4.428086880022178,-13.510540786973161,-20.001242642348,-22.620120059684183
1560.0,3.6103270398167058,14.695472295973795,1.8785574172200583,22.689179932839647,8.054980632513095,12.926121641603377
1580.0,-2.1308409403776567,7.6869980221523475,3.4097284219584307,-30.373631171561165,10.451125059966902,25.473774593373957
1600.0,1.5010840799367844,13.206235537636648,-4.256303600137269,36.15476452068331,-20.14278603717238,-17.251598487865266
1620.0,-1.8317048023699656,2.6375282274594976,1.493576456464477,-35.77626107104385,21.56554296530195,-29.588071727778715
1640.0,2.2364040090195267,14.808093473003025,-0.6700430539360637,30.09472389436155,-6.428252873378135,13.76237094981201
1660.0,-3.4344212052005014,9.646053640978007,0.7290003247891013,-18.131386425797867,-10.620716977945063,31.037052033949085
1680.0,3.552130337592401,10.086761631364292,2.4261611309883975,6.937452360151785,20.7804867717092,-5.181836544362593
1700.0,-2.083494658490954,8.00522350555062,-5.471785179216526,6.759851907807493,-23.41620576566332,-26.648263503526906
1720.0,-0.7371103722409921,7.16225856971533,2.06277375686691,-18.914412032985652,10.750713566648885,-0.8089130603254491
1740.0,4.173531354387608,16.1252224593218,2.897230113277182,27.55747831813705,11.475007436320645,33.699012844812785
1760.0,-6.769153768955955,5.1725077994461355,-2.639504378307033,-35.41382344121227,-22.8323188029359,3.1058734736182627
1780.0,7.197537242781112,12.690259785660395,1.2750410164772115,37.51494142474077,22.871326812877953,-27.022642221712463
1800.0,-5.55079474064017,4.698901393217396,-2.3608055299401913,-26.865367920942006,-14.399003907917127,-7.028659016748998
1820.0,2.6491123602653657,15.493740907524813,1.3721110702546022,25.456611820707348,-6.477107906594211,27.805316937068152
1840.0,0.8190101413793575,9.153586282344428,4.086495933292185,-11.68484976537017,22.364916621459255,13.53496469224805
1860.0,-2.920185632646268,8.164518498677864,-5.135732436162793,1.2764420197811155,-28.906331630125432,-28.206836720927107
1880.0,3.82907738264161,10.018663143449393,1.2792912607773714,13.555987376911645,16.02868648076137,-11.1841471833564
1900.0,-2.255599813164362,8.939944318513815,2.3451870834151425,-22.810911328526394,3.558786186634297,22.80233421310398
1920.0,1.9281574259362477,15.9253727608548,-1.5380824352454017,29.463471066590216,-17.974621401041105,19.137804126025145
1940.0,-1.444094356092841,2.837773708070876,1.8332363684074315,-37.186044869596465,24.81547241004659,-19.264828008316645
1960.0,2.3228810668379065,13.017423391691473,-4.199853704607699,32.17566677909626,-14.021647130194783,-20.740553856539346
1980.0,-3.5194313040654057,7.381456029142565,1.0772358022937374,-27.425436391001753,1.1976648836088049,22.062176880492427
2000.0,4.596572656398879,14.694005903904227,4.234965316994947,17.193229158171746,18.507784498989352,23.17787013452684
2020.0,-3.704754774834923,8.114050671436098,-4.734907139340892,-5.645516914470309,-24.8379086619431,-16.813562925906783
2040.0,1.4472686730482458,6.523959471118755,0.8279952541111213,-8.36975350975049,23.538900223572632,-24.19130159900985
2060.0,2.067466736503111,13.520520519016289,0.573052661213157,20.505632275276593,1.3782957139507686,14.61364116149645
2080.0,-5.535253383223135,8.17743259916432,-0.41610794616035196,-27.372480298465167,-16.50059027659305,27.06415245841762
2100.0,7.099499932313358,14.127177847318272,3.1084240990893797,34.672875849454456,25.479578901034984,-8.246629255685633
2120.0,-6.874751446090923,2.6587678571938507,-4.804137614907863,-37.35090917101229,-20.165821733057303,-27.219143050925783
2140.0,4.042437365176286,14.677711225040944,1.308649183694238,31.527054622102582,4.70731270781687,4.690785830219104
2160.0,-1.1066408099400924,9.10765909283456,4.24867489712156,-19.969673279617286,13.877446297348145,27.112369929576772
2180.0,-1.25518274584053,11.540456914666812,-3.2277250130140414,12.60516019076423,-23.104037224309327,4.22074440262862
2200.0,2.962267555676435,7.342166802355354,1.1783809592394103,1.937867818176559,19.797295009383873,-26.774434348345356
2220.0,-2.5672440109079764,7.420531327033451,-1.4065267281010128,-12.803536175439591,-5.500596254884692,-4.188678008208842
2240.0,1.7879871356566954,15.907332976165925,0.46342499357320643,23.63322211789002,-14.397031763013464,30.101235186415835
2260.0,-1.173263211357491,6.3781653973037455,4.430056482372564,-32.722149267696906,25.152555176456506,10.13945883076875
2280.0,1.680960693781715,12.752495410555966,-4.899417844322342,35.041816186514446,-21.62853815362743,-24.172289655307353
2300.0,-3.636130795105367,3.8459878082882213,0.08510280924896574,-36.59850701991932,7.074661591866163,-12.268838260868382
2320.0,4.478518244738665,15.753380402463941,3.2507838464627987,28.793632735975216,11.51983799858046,29.408411195299546
2340.0,-4.965563584898417,8.46377816043461,-2.331248539562652,-17.146270673059753,-24.600335012134682,19.293489976623263
2360.0,3.6730087593449063,8.753829251009014,1.7633035848465002,6.802423632403018,26.952482758922613,-21.888977500339273
2380.0,-0.44773744977247526,9.124607656502038,-2.982779677846695,5.717230402257696,-12.116074786223345,-21.604634097111298
2400.0,-3.368275872529292,8.691215691368235,0.025086614311614686,-20.72105229630346,-5.721812034164601,21.73496264055482
2420.0,6.337043854424389,16.004482422705035,4.544550591832665,30.527621810141362,22.990717898114216,20.660893750614616
2440.0,-7.279560437646937,3.5039257847508045,-5.026968469746575,-35.2737226870574,-24.745011395550826,-17.522984311003327
2460.0,5.931602546933476,12.627518957063181,0.23599501630447234,36.478621088773345,13.25692855122369,-22.634986271014988
2480.0,-3.449605561958794,6.2782039203708475,1.8269720182281484,-33.03545022167618,4.300472818120202,11.471307343705323
2500.0,0.5119534660703826,15.26496172419714,-1.1124840189252105,19.597665026809754,-21.213953588763868,30.89609827117869
2520.0,1.3751287261960337,7.702834344458505,2.941201068814366,-9.608582817060437,22.62974526020882,-9.730007120240828
2540.0,-2.176340146390487,7.020371986021788,-3.925198060816914,-0.3484389256511504,-19.230008537496307,-30.745210184116473
2560.0,1.2304455646945214,12.388927641449625,-0.2469415479361963,14.016811504750763,-2.6705751582378285,6.7874910499128465
2580.0,-1.0541567402725875,8.909430915930226,4.422190288170084,-26.252438045798215,19.368759936543082,32.19511366899962
2600.0,1.0837184654893814,14.552342019497182,-3.1737585926768563,34.04714943094928,-21.689451728108757,-0.7691755586882146
2620.0,-2.5742399066139834,2.3934450496962554,0.2001943344441743,-35.833077932762976,13.660016885880628,-28.101116371024034
2640.0,4.111869876302409,13.992464445137642,-0.13020823871961096,34.992818624126265,0.9502731883942568,-3.3621571188872323
2660.0,-5.728800404513249,8.444804830330908,-0.2725288419717046,-27.209256077771258,-14.307243855958605,34.888850219366255
2680.0,5.114920432390694,12.846664803740918,3.888112098179393,15.15253480505684,27.28213260387489,6.825035507773721
2700.0,-2.76627137798753,6.938822802195963,-4.466240797930184,-2.110510750406328,-22.540595220288864,-25.27265326539876
2720.0,-0.6437344606286286,7.310208016593851,-0.7792751954494155,-9.131121227656346,2.5835766865332292,-12.272860747737834
2740.0,4.2937568554527425,14.536976298546504,4.015450042634355,20.834093104926797,14.999138295346256,24.83484575835013
2760.0,-6.657750770318494,6.647273246762415,-2.190193465254467,-29.66226255811431,-25.827057119256104,11.50683855716931
2780.0,6.287662213858809,12.441782385591573,1.007013456430117,36.46418634678102,20.814762077190633,-25.51231674908631
2800.0,-5.31248441737088,3.0825364914162177,-1.7178944486616146,-32.163109052335884,-4.888025074287594,-14.572385074845625
2820.0,2.3568269922047334,15.894448454349195,-0.48814120428514696,30.328732412494197,-17.417390459228663,21.967777556132518
2840.0,-0.062206656108190844,8.840198157396875,4.885991396280445,-23.839279107539706,21.54664246257925,22.692948329415334
2860.0,-1.3318505786911652,9.531161317571483,-3.999569059919516,9.841900518400818,-21.827340022280776,-16.754994814365034
2880.0,1.306011010234138,8.328338393606305,-1.0570334302114364,6.2455721637256465,6.193010139582085,-27.8215132794066
2900.0,-0.4190127097124082,8.607836676700504,2.545179749485773,-15.484046671020229,12.917701467752273,13.247604108116086
2920.0,0.4449030240665967,15.534079135766195,-1.3494633501949171,24.76115617311032,-24.920635497487403,29.232491494304938
2940.0,-1.5819660018256885,4.266906143641583,2.349310648701939,-30.040678882763522,22.21846761054452,-11.15036259214648
2960.0,3.0868288687458825,12.256669433647394,-2.566567773112016,36.24401887976829,-5.693139009096525,-29.673184201178735
2980.0,-5.278076886121601,5.699254816892166,-0.7042165268352742,-33.344999465854,-7.835745543550151,3.227056826892234
3000.0,6.406866915930102,15.819321306865117,5.030025886270939,23.45649431868603,22.852862345258647,29.622992877740405
3020.0,-4.811033416632632,7.949506942644014,-3.280233011287881,-16.052146970240045,-23.386423573076858,-4.85362025745913
3040.0,1.8337929423746648,7.629065131023196,-0.6108383000748427,2.2164722988786214,12.35173420625174,-30.660590330707862
3060.0,2.49138541811146,10.769091073355444,0.9613704203017059,10.632604411839731,9.097727997526915,-4.5753485467310835
3080.0,-4.993319533527896,9.064176674358784,-0.9701288932958895,-22.018408751477782,-20.219000496311956,24.984192221536375
3100.0,6.875714565030421,14.804263325354565,3.862743108833303,32.86238988802464,24.006540555829414,10.584433228381318
3120.0,-5.871054833262774,2.8358119598852065,-3.47337399278023,-37.31780518622158,-14.136284746900506,-28.858199628903
3140.0,3.5632475418208904,13.736043067518505,-1.2445199800512432,32.50229795032196,-8.171823307203233,-9.395942862159776
3160.0,-1.2307114657649973,7.873354316718404,4.979562597333357,-25.786178386192688,19.092594243557752,27.67020635114889
3180.0,-0.1662345133884067,13.85952855144932,-2.70828075366706,17.824603933061944,-24.922788214247063,17.140163682598274
3200.0,0.839095624089438,6.496025191743319,0.4863774847486182,-11.150626791614561,15.285857771764052,-22.693615899299772
3220.0,-0.4047948397875782,7.925498496033372,-0.7091881427941071,-1.3075368727226961,0.5464975085221981,-20.519192135067733
3240.0,-0.5690843407624141,14.299988114491924,-1.401572785879178,19.174205677082284,-19.26836304177925,23.736829747301268
3260.0,-0.3279073371018714,7.9025323661298295,4.876849147339608,-26.873661675050723,25.930044255850397,26.597677578089517
3280.0,2.3506641224785083,13.088779669169341,-3.37865857050294,36.86983995214236,-12.882634463093167,-18.0966687747648
3300.0,-4.556360320485215,2.7688947681899707,-1.6146955660530855,-33.409910516539945,-1.0355133147210267,-21.042991146663983
3320.0,6.188172888911287,15.608501931072317,3.371463775932738,32.4657787392296,16.085962145839055,16.24617170049852
3340.0,-5.919958886244021,8.484639139184305,-1.5830247645399989,-26.572653878930602,-24.23089302279604,31.164271426231757
3360.0,3.7182012851123045,11.06730944375408,1.9247250713832271,16.6514664656803,18.573864315250898,-13.648325881592127
3380.0,-0.7740119127528405,7.147982977050608,-1.860208507764511,-4.000408417969695,-0.9609640054704761,-27.59898370921416
3400.0,-3.2833344131180366,8.724077312804667,-1.564657729301559,-11.77160163023292,-14.281368527902186,6.105594019835863
3420.0,5.833425660446945,15.465895803914602,4.969583902374335,20.912864953469516,25.109508234090626,30.710807670688013
3440.0,-6.266330673943046,4.886014887427817,-2.876520706986945,-29.771508287570143,-17.464162590689597,-6.110535526643639
3460.0,5.068076593757689,12.087974477380564,-1.2290782568975047,35.34761234694474,2.7228177795070514,-32.790520900594984
3480.0,-3.115969610146804,4.378653950863948,1.5995905164816813,-32.35030801103857,13.212831432035689,-1.8967836537762481
3500.0,0.9589309838855694,16.683964417564045,-1.659851770021936,27.737837749147722,-19.050672377437294,29.432628839197285
3520.0,0.1562650693020193,7.692438122371562,3.43861251740529,-19.459671981487926,24.6853137282652,5.380126328515469
3540.0,0.46170771535708754,8.65970935526496,-2.609960973205593,6.199848682647153,-6.611384614330059,-28.11284156874097
3560.0,-0.5795066705831771,9.339616707753082,-2.2428537077837025,3.8434613279244196,-12.639273974472706,-8.044534510881043
3580.0,0.7185136254102453,9.836481755178728,4.974023561904103,-19.047811681455258,23.15710456142097,30.030891426791126
3600.0,1.0302878746761746,14.966016787930423,-1.975722360531042,26.369615906840366,-22.958455530890234,12.29103652222144
3620.0,-3.4312253610941528,3.122676830862631,-0.5970400959861983,-28.858595212137825,7.3282808134508794,-22.19878460421679
3640.0,5.809109111451891,13.667067053804208,0.47985009239498755,34.572631783656455,8.597621043604292,-16.74718352946355
3660.0,-6.943142112491883,6.932198603541719,-1.5938233390466914,-34.87946586807592,-22.15140686018355,22.65677869915442
3680.0,5.91739826292665,14.641039736555014,4.568780636279322,26.021248173432156,30.195691310116082,18.680656337596563
3700.0,-2.925165467697076,5.975522678073301,-2.97933445524114,-14.8913366737429,-12.303589713918655,-18.531679627048412
3720.0,-0.7960453669234684,8.310633392032237,-2.664928077903102,0.02339320163045222,-7.177556929241219,-23.059898469730808
3740.0,4.756390839925712,13.265087137720112,4.251460739627575,12.79254787448875,21.16925149479201,16.07037289741786
3760.0,-5.87363034468939,8.767978374435327,-1.89407405417146,-21.422783211442333,-22.831095833439235,24.206539415568805
3780.0,5.537536644405586,13.189919323649425,0.9630552324041292,31.983387244491812,11.30542783871911,-12.45934120971427
3800.0,-3.7045990186280755,2.6860101495609956,-1.3700288824598457,-38.31408281819972,6.887811300029164,-28.825486979681205
3820.0,2.1033088676015357,15.350094337785055,-2.467225967853707,34.923093113143324,-20.41715803090412,10.137042805729688
3840.0,-0.5252720838809211,8.176368433109804,5.0922597004143935,-25.898075746480202,25.492270176542128,30.540837684224527
3860.0,0.43768345011623433,11.859746654346125,-2.199744395340423,22.644320385499423,-16.302265446030304,-2.5332053219613417
3880.0,-1.378446737059418,6.254778167885529,-2.4622467716804066,-7.859040549107579,-2.0869767481220878,-29.730688931885403
3900.0,1.671516037462256,8.422553952546172,2.4222245257300026,-5.885958311428218,22.510612080158978,1.0705510534195277
3920.0,-0.7506920456629007,15.012496212739265,-1.861843572270017,19.81451364924705,-26.541039372799922,27.700616822451025
3940.0,-1.2999297168939252,5.946551500993779,2.4271180345956274,-31.678809392290084,19.660996633240437,3.3370524714989624
3960.0,4.508216651680157,12.322375906339897,-1.7707917057998814,36.25731181985969,-0.657714701079442,-27.263355208004448
3980.0,-6.668003848076975,4.504133301265643,-3.342340238428745,-34.52677525922876,-17.04068726264803,-8.51709954660105
4000.0,7.1314056928086185,16.54859305172503,5.159340210311786,30.787251772115653,22.816219990013042,25.316879290153775
4020.0,-5.146193894007324,7.333675721781127,-1.6866356715060606,-19.300424226141054,-18.63195152054458,11.638178326009415
4040.0,1.4610847715107333,9.076113359730307,-1.6756455320174257,12.199252697818501,0.3316673539266932,-30.272825889875826
4060.0,1.6241090621581644,8.514438361256571,0.9326929099979512,2.4533861774148584,20.47192961445648,-15.007488863900475
4080.0,-4.736289759648463,9.962047812551628,-1.9962690306964437,-17.023067196869132,-24.620948097617465,26.46277393944384
4100.0,5.72058995850763,15.329132408238438,3.9557636570524393,20.22982522205387,17.494757462857915,20.83612668471465
4120.0,-4.594221403585638,3.5179260673796757,-2.2020008559663538,-32.34127209644028,-2.5973717748490044,-23.186054341476968
4140.0,2.7247526380337916,12.790881374517824,-3.224785288052034,36.77022043194158,-14.231002240982281,-24.37385904181778
4160.0,-1.4699367348084162,6.693679005952305,4.805318360107036,-35.82387012018057,21.495111307455204,18.790472127114516
4180.0,0.9938634065358235,16.044843530246805,-1.3704580403790192,25.870109932233152,-22.3866401105572,26.526852133492568
4200.0,-1.5285527548279434,6.189842184516041,-0.1144869174733625,-17.119344897718403,8.28414752194983,-15.057765341327366
4220.0,2.0297825271727477,8.063739623145416,-0.2923158574457466,2.1814148407357195,10.707426259962057,-28.151294918713095
4240.0,-1.9658138546079649,11.767263705180541,-2.6524734564231434,7.012382213393053,-24.08779967677737,6.971825924041452
4260.0,0.44778076271327266,9.486280593775788,4.892498994578628,-21.439641777174682,24.43477286781742,30.822874978842655
4280.0,2.5740157786269156,13.54417636237122,-1.4986237779443157,26.42297848862693,-5.543841174635309,-7.887003153886345
4300.0,-5.233767544460721,2.50542197316497,-3.4724267994578693,-34.71336726774161,-9.493546610467146,-28.861200371146136
4320.0,7.087456758095023,14.776771065055993,3.132855016095431,35.910751602248546,23.796069288160368,0.33541209104656766
4340.0,-6.985238766474977,7.932336441282915,-1.1559433940557031,-32.14707424024707,-23.35319166314799,29.285847311280715
4360.0,3.9546979974277416,13.114455126447625,1.19868839013263,22.8488941471481,12.10859818682365,0.9188998768225014
4380.0,-0.8197700355018218,5.668541884754581,-1.1629560460771362,-11.37531000967226,7.148145237698201,-31.747504700831737
4400.0,-2.7769358869165885,8.908088379141047,-3.5445885238651442,-1.4244892015245119,-24.514104390026134,-9.373696244107043
4420.0,4.835991536176393,14.53485028913325,5.343471598191772,14.290726604832741,27.608182115373125,29.07771956581206
4440.0,-4.633862563364186,6.906017698944374,-1.1239264214050873,-22.449414200295955,-11.414483296880103,10.161963013092638
4460.0,3.3320454376541004,11.968147141019308,-2.555122144266636,32.142959103236244,-6.569007206205596,-28.34882889970124
4480.0,-1.9295656907168732,3.6255294643208917,1.675881125270794,-33.288350513694326,20.43998365829942,-13.886103164469697
4500.0,1.2365389362446366,16.725349915586996,-1.8950900656331238,34.0481508400865,-23.47388509588393,27.453817497232915
4520.0,-1.568703900454976,7.492926893245067,3.3100946161999305,-24.760512540837116,15.187191406097474,17.641564888872118
4540.0,2.5566389257698305,9.995880864823933,-0.6399470148192092,14.607088198420882,3.588837308975486,-24.56582436945745
4560.0,-2.905444746551611,7.132972204095038,-4.169286876888703,-5.164092300386962,-21.023856333025584,-18.691086160487185
4580.0,1.547906532243956,10.358172441112297,4.640893108250286,-9.396869761985911,24.871032708488634,18.363321016644015
4600.0,0.5488198334767488,14.43789832965436,-0.4085484107892865,20.149898729003453,-14.95557131544661,21.267447734117006
4620.0,-4.141019902795381,4.391507339239954,-0.7838754918595832,-32.81365517316547,4.137001921099082,-19.34087868365434
4640.0,6.6029046347007645,12.697472233429663,0.5205385702320625,31.937040191219797,17.494433872397803,-28.6121955396654
4660.0,-7.609972852839419,5.804680812203402,-2.863877494174529,-36.69755641368295,-25.00010736388942,9.534100601892998
4680.0,6.2701176414161095,16.718294592800266,4.21632988085643,30.349686619681258,13.762984576305598,30.882584438113017
4700.0,-2.7422692519369907,5.8669444698025925,-0.787977534546853,-17.555589005300572,-2.1239381786566573,-6.212325052701988
4720.0,-1.0532946333975928,8.957221771703473,-4.323076042375654,10.712101600572721,-13.91530004997453,-31.27438224162939
4740.0,3.281236767913812,10.17554029678055,4.013687399988877,3.338828286826206,24.85757927391513,6.252368890416655
4760.0,-4.445723960477717,10.052104082594006,-0.8526414126216872,-16.896999190582193,-21.433535852098366,30.337089172241626
4780.0,3.6270358888563496,13.640960540414184,0.7383834132391244,24.17493539895537,0.8840358855420019,3.8663936105763153
4800.0,-2.1448159053839673,2.9900138769765072,0.16403246026658064,-31.783371217971663,13.960047728287465,-27.77645704458226
4820.0,1.7279605566844392,14.615523155450054,-3.7963812558936745,32.46197693642685,-25.52650567791135,-4.910801121505579
4840.0,-1.5729695602522695,7.686225982287613,4.730323831591218,-34.848722988023226,21.18438395579473,31.444402867475084
4860.0,2.856851815229586,14.501790331598785,-0.23647575859735798,26.67462225631393,-6.67873376712759,8.286309175919019
4880.0,-3.7818478016032735,5.183026952608046,-3.6136564910261355,-15.365393594972868,-13.94070466032327,-29.47513062467185
4900.0,3.346267021347484,9.529264792870713,2.5465466783770445,1.9788449284976821,20.26791220894517,-12.953352077863839
4920.0,-1.5831459024630892,13.08461909654267,-1.4531014709860393,9.57300222570635,-22.444704897295466,27.03487710899258
4940.0,-1.961753050908498,8.213541542523725,2.329302065633207,-19.744175966741498,8.439324481242787,15.293689373241074
4960.0,4.929173729351636,11.91743215666886,0.23516879906540195,32.485262700811255,8.034724035269413,-23.07110106516096
4980.0,-7.284369562733971,2.7126000017348413,-4.811572496779021,-36.62366197553952,-23.69655976765356,-19.229617171841237
5000.0,6.889395494911818,16.528666386274516,4.433304481169499,32.69534655510682,22.76544733420059,21.326210046622965
5020.0,-5.062203386570896,6.976836275939516,0.23026642345197462,-28.526521499081856,-10.825836311501993,22.719464854707645
5040.0,1.5539730539213483,11.353508802605855,-2.526885237849489,15.719456473643646,-8.393327276886648,-17.599666396238185
5060.0,1.4504154466936856,6.247646558884967,1.2662811785940962,-4.634313852473756,21.357769006807022,-24.054193676385886
5080.0,-3.5698174031823746,10.033892876660895,-2.6853487930583735,-4.797538753335369,-24.94561881348069,13.553065617977252
5100.0,3.4833861487442594,13.995425774364666,3.6112038313126513,17.365767966784666,12.217573311044019,29.446776175004945
5120.0,-2.5540576881719868,5.554087967188731,0.09828691782934064,-26.00613628811136,3.2525632193479064,-10.0922501486235
5140.0,1.8612990664276268,11.676719913254791,-4.550870936132608,32.12363079913628,-22.721278231790418,-29.57769307897088
5160.0,-1.5226241108763265,5.02570349671128,3.760885691452393,-36.54379727859613,23.49714716330003,6.25664917498248
5180.0,2.3527075185575588,17.581880043836495,-0.06236198700440816,32.639292542216936,-10.997377871425876,27.281105073421333
5200.0,-3.8830149485413212,6.181422121890959,-0.22912294223921148,-24.356723201856262,-3.485125262669832,-0.43386390271332864
5220.0,4.367675642564169,9.303195554159915,0.6534657838735621,12.776168349934553,20.526090936555555,-31.01157468129661
5240.0,-3.286543888219116,9.453665806776591,-3.831282539117371,-4.865220247627314,-27.235050038481646,-4.414242513174356
5260.0,0.7110266758056105,10.5679643002958,4.581070066419336,-11.361930031393513,15.382554341487953,30.026561197684355
5280.0,2.8503156508043404,13.747962370746224,0.5474968327366334,21.980745498656688,2.46968918577963,7.327295592795374
5300.0,-6.027452739957217,3.3052841846263905,-4.670435499239526,-27.453103398866045,-20.366757934309387,-28.386832650854846
5320.0,7.21416846057616,14.055916831042085,3.10998726145373,36.57203353542172,26.84458263444016,-10.78330769755313
5340.0,-6.902138156984925,7.36587574398497,-0.8815758199794691,-35.057432967852584,-18.418458598074533,24.245724739960536
5360.0,3.5920348846755807,15.624702629107297,1.3641169288828685,27.89396488317498,4.194701748222095,17.352751572400507
5380.0,-0.9104982581050172,4.807704358023291,0.5939020293807077,-15.557075788747213,15.714039993662187,-26.221235875116765
5400.0,-1.9084270799579146,9.059023987538428,-4.821025228496298,4.602405904426124,-25.004203676726874,-24.228133149842396
5420.0,2.5851061451401574,12.681405674119604,4.0077635766714605,3.608018879234542,14.846863415247764,22.736765362473502
5440.0,-2.7780696388409014,9.399484032735282,1.002628966856877,-17.088231203389373,-4.379155452326037,19.93697440964478
5460.0,1.574640766156269,11.698709926339538,-3.3804638257290622,26.39250285757736,-18.650695118378756,-18.347076281800568
5480.0,-0.9877143101831087,3.2167591976143566,1.8229935262661303,-33.200389774440104,25.376775203593507,-24.173819563609953
5500.0,1.9939361750049103,16.266082867960783,-1.6857230384044843,35.494465417329515,-18.229318186430774,11.862827356105655
5520.0,-3.781847477749036,7.1210751097977365,2.536285096999327,-31.914450401434852,4.186201802914738,24.263992012892103
5540.0,4.54113993378278,12.011784566934088,1.159436219007921,24.271455917558896,11.913140867200575,-8.382681264000492
5560.0,-4.832468317738872,5.576780532964629,-5.1340384589184165,-13.904714449511728,-22.969259303243167,-27.632617076563804
5580.0,2.853445657260132,10.70239180790631,3.4427415571295756,1.3772806779193858,20.76174444863192,10.239814814660857
5600.0,0.3668022661758711,13.964966126766555,0.9690999105737451,12.400906332939067,-5.704770303644499,31.18047501597011
5620.0,-3.9953042098511196,6.471751492749988,-1.9363722321085777,-21.833087003494317,-11.893211898826797,-1.5055978847614049
5640.0,6.675221461520449,11.513323353388426,0.8565096416183269,29.140702048909517,25.28228038123594,-29.428871251925774
5660.0,-7.199371034639047,4.847460546389309,-3.267841487266547,-31.849730363361914,-21.46173784297313,-3.389616362116713
5680.0,5.6423821947039485,16.873417183904323,3.6873039281916413,31.938044795125045,10.824810988725671,27.44619569549174
5700.0,-2.953387565198961,6.309964272445436,1.776118065208586,-28.862926922139142,7.629073399551896,3.4981860049453863
5720.0,-0.4143389413850923,10.024885038771385,-4.946745502678814,20.296365999853844,-20.646829553036245,-30.73353017882591
5740.0,1.704683692020468,7.862123133894536,2.6251542678764928,-5.376389209107511,24.583788334319998,-12.899885143482656
5760.0,-2.3395168799163018,11.07672000950537,0.01773609963207333,-6.699352950094283,-14.744256974307635,29.791336654744196
5780.0,1.693754099813902,13.641261748511077,0.1259684131895752,18.592544896774182,-5.285416291131511,16.5582219233782
5800.0,-1.049350340885484,3.6143827576290755,1.4353266955210664,-23.96028927164932,21.55681713880735,-28.091490246195587
5820.0,1.1997141602479753,12.951244647486675,-4.438314127477667,30.419531931055516,-20.703006327503747,-19.122600622832366
5840.0,-2.490306143674581,6.8099130897040485,3.525267623680546,-34.87969666649348,17.421527695088717,20.88489083096713
5860.0,4.661769893906339,16.419314351534133,1.7686842389808468,36.8803124489281,0.8987335844715965,18.56532833308401
5880.0,-5.645060666460107,4.729047304557805,-4.292492935643741,-25.531262624789786,-23.374775962469702,-17.851244815804797
5900.0,4.528192396854465,9.841570924129933,1.6413842939573913,12.564356274390057,25.02862139750006,-24.25328402698353
5920.0,-1.8588200620231006,11.278758936298567,-1.1108483053780398,-3.728631586576122,-14.818364022769206,18.181470401921615
5940.0,-1.6613737739118806,10.026635749998269,1.3381822842773061,-13.39664508489356,-0.9024298347550337,27.70516959035502
5960.0,5.392905036487724,12.490535425275443,2.039965759684057,24.30875909771131,22.29872358149022,-13.347786530143065
5980.0,-6.778075567716534,2.952280088784455,-5.61632511676725,-31.149864211810467,-24.26687358070702,-27.79963095350652
6000.0,6.470656059470034,15.537886411902418,3.1462352381634133,35.96377258488438,17.416286149401195,8.771794005210923
6020.0,-4.553340300961951,7.744008992404545,1.510724471091908,-35.97288157077357,-0.2600471701806668,31.200701587841788
6040.0,1.6004883488878225,13.661297422362788,-2.533188298858729,28.327119713717607,-17.53302179163037,0.30896650007546
6060.0,0.49593393019281307,4.964094330978618,1.662842142190561,-17.650592291097517,24.056488164789965,-26.228573731031823
6080.0,-1.3761414070249944,10.739945219037741,-2.6763351120517043,7.108985211715288,-19.184700633539816,-3.1837658243260396
6100.0,0.7041412153315076,13.422691813805663,2.322800291023052,8.209057032962901,4.80816695657426,27.90063312478228
6120.0,-0.6328526777140634,7.311746852364869,2.5587159181173194,-17.064790236693373,12.461202577679002,3.8726388494694897
6140.0,0.5517093872855598,11.222482469879706,-5.4333426305169095,26.468850289225767,-24.76433874902719,-28.786745193576035
6160.0,-2.0526501589851387,4.33985142022582,2.4243814836195456,-33.378423259542494,20.52524665199255,-8.265623180189385
6180.0,3.249907748808767,17.018935455107783,0.9532874482089305,30.58243885897839,-6.632597219136328,28.468888554156326
6200.0,-5.585089706252304,6.8010248154972075,-1.0085939075795067,-31.483990835151968,-14.436213117265236,16.724609716871424
6220.0,5.903243119663192,11.119840086647141,1.695384332912895,23.007446827716524,22.086338262439064,-24.143578860601664
6240.0,-3.972019075082678,6.886949325022867,-4.435899438366004,-11.837538939604112,-24.140677986722448,-18.252225829227434
6260.0,0.6687468453170354,11.571777461185595,2.7136269933481105,-0.5840461773798904,4.460898116380175,19.804902288645167
6280.0,2.9157048388246527,13.121892738540243,2.7488918283078547,13.743943638860806,9.931631202363908,21.448178934733505
6300.0,-5.727865377938161,4.252150233689336,-4.857839099964556,-27.94085505218208,-21.25973407351428,-16.258449838549325
6320.0,7.098507173308547,12.35398581669654,1.5643534667232266,33.93234202047111,22.628585280259344,-22.378444340214667
6340.0,-6.2744864157725315,6.04764177512387,-0.17694364243881983,-35.043157199836415,-6.459738183680029,16.840942068528584
6360.0,3.2275232389960307,16.783208360741472,0.5481628415305326,34.09411479862343,-10.596327048892661,27.230123740036927
6380.0,-0.9671643022408744,4.949237871040445,2.3377726504840997,-23.82513923347237,19.69461313265323,-15.032614400723151
6400.0,-0.6563250601147878,9.907103981323639,-5.001065479396965,18.273241030525643,-23.52421065985413,-26.896303496787272
6420.0,0.7322394710385548,10.055042833051806,2.1383970263189367,-7.514593979825111,13.658931260061205,6.95544595384399
6440.0,-0.42965176137489186,11.252059932496499,2.9448337214640907,-4.5355438170765545,3.2696852454985126,29.515431470363758
6460.0,0.06309082306354274,12.500392120882974,-3.1367171024119553,17.580666126285358,-19.37078530739099,-3.304653628159502
6480.0,-0.5981745708915278,2.710035272490992,1.3284187976315076,-30.30194448848258,25.929067187479323,-28.694013655640987
6500.0,2.651723431394353,14.679034443315196,-1.9509196950045424,35.3203072404301,-13.688537274614944,-0.053092238624861676
6520.0,-5.394166211438927,7.3866533832613746,0.9999985232571426,-37.98546656815029,-3.341290193704111,30.55619613388163
6540.0,6.150974395889529,14.20471233302169,2.992859540762139,32.75259421659327,19.320021104560002,4.880578440642737
6560.0,-5.6370689537856,4.6482695678519255,-5.36057467116354,-19.655549592866887,-25.436889535757732,-25.548618265923846
6580.0,3.2381651694977336,10.859650141681767,2.018307826577266,11.908104203523777,16.190104091434467,-8.627749541008512
6600.0,0.07638391929019583,12.491429497242851,1.9780262255457908,1.9137483438078062,3.1024145321117764,26.74337574354815
6620.0,-4.150331277153658,8.858806145797297,-1.6702916407288044,-11.888023733094517,-15.094621059893198,9.333411167387304
6640.0,6.2384834210699625,11.245427022001959,1.8427690794820544,26.62509101313988,25.476688137133703,-25.07929840851677
6660.0,-6.321263563663974,3.82442682925506,-3.8521788592389,-32.131207680388044,-17.219101347707095,-18.768148275894283
6680.0,4.559802793064311,16.862589168758706,1.4516372034804514,35.69785863211513,0.9887803297541865,25.801190444974235
6700.0,-2.064366361932779,6.569533969928475,4.068063175179629,-32.369692728939704,17.899735727226897,19.630789292142765
6720.0,0.4274364024506042,12.09808315632117,-4.978043371731416,25.156150770753797,-26.38178024267205,-20.522124311056256
6740.0,-0.10551429800815237,5.397200828943631,1.1572890791775088,-16.636991148856975,20.518545409343265,-22.208727071163363
6760.0,0.42817561571730484,11.707050828627173,0.8906473478188314,3.0824185236588653,-5.554364863701201,18.926552975945892
6780.0,-0.7762480456011607,13.601618584998004,-0.045900728929905155,9.107621325552447,-17.087814763455725,25.053293965871674
6800.0,0.4325747644099791,5.689879530045885,2.9358729090178137,-20.76533695046224,25.038837215300816,-14.376565837138486
6820.0,1.5955534467496921,11.904867878793091,-4.418212458855036,33.9043332645868,-22.283993150461733,-24.238449141578094
6840.0,-3.3758242768268394,5.885292435622858,1.4795577349599878,-36.42676415134784,5.342205879843235,12.247160329364807
6860.0,6.254026609468135,16.8576642679188,3.6143182187982217,32.65250975142662,16.543070556580616,28.72251600158837
6880.0,-6.548043070476045,5.014274925740419,-3.7044536555745813,-29.220711424748018,-25.438073378050788,-4.932592158102102
6900.0,5.403837902180795,10.918195844508542,0.7688718977804412,18.6822439829825,21.778714965298427,-32.30044915618848
6920.0,-2.1919190860050466,8.952495807343288,-1.2019234294872683,-11.103323048802025,-10.135619091152593,-1.0233898944593918
6940.0,-1.3756304160709292,12.101885491933585,0.38412875100851734,-2.244241165997641,-11.379881453014374,27.789729025688885
6960.0,5.121021197288274,12.315307811611424,3.341065687525044,17.407459094428965,23.627506297377,1.8949045730137066
6980.0,-5.81921308919809,3.67991000756384,-5.18513583651894,-24.078048316833346,-23.627320733307435,-27.69519334631691
7000.0,5.4795627162327945,14.042610712590866,1.0557821118748008,31.088516154765653,9.0858375943906,-4.7471704777791475
7020.0,-3.2496637213846387,7.152112399453177,3.2553478702575984,-32.998742903006054,9.606682555702227,24.472292562568263
7040.0,1.407958304831311,15.533586981498555,-2.184971690698194,35.14011919947521,-24.261372974791836,8.074706637138345
7060.0,-0.6103712000216042,3.9090208859100035,1.3423083560158782,-29.57401114342169,23.090701714567675,-25.10122676410149
7080.0,0.19769799474468353,11.039472986754406,-2.9370187000124024,15.469060897683919,-13.966580920979313,-11.31801829758845
7100.0,-0.9044304892329519,11.508030088910592,1.060573508829695,-0.9193638699134803,-8.237460585960854,27.460124459705213
7120.0,1.6860046198263399,10.024204188855634,4.235543421522323,-11.879076185698533,20.708489032360305,15.05955002003347
7140.0,-0.4052090881291007,10.908962006838115,-4.895189875392153,19.581502926553288,-24.601473271144222,-23.876991347461363
7160.0,-2.221718117914844,3.8431252755679624,0.4757235680099268,-30.954705376971734,14.21752101874136,-18.954530814830346
7180.0,4.809285920687258,16.28533607975127,1.751226142449073,32.186744905672185,3.067445592951887,16.618141795679573
7200.0,-6.676236798386211,7.3888857422784735,-1.0084504538249521,-34.43117189821033,-17.788981509584715,25.565233530251454
7220.0,6.7448522717387025,12.74174518300543,2.5967738278316004,30.389084838681786,24.3056388995897,-14.621793422948603
7240.0,-4.73800791022505,4.843800162111178,-3.8735504417361577,-21.57851017229598,-16.40546205428597,-26.99718915784727
7260.0,0.9136672371646624,11.720712073981954,0.6346919325785931,6.273488066604583,-1.6474786987583945,11.343722413611161
7280.0,2.9330606514849356,12.851372985936942,4.773962662961024,2.9974013150029446,17.462635383019297,30.155865747757822
7300.0,-5.401719423427033,6.491867017311186,-4.0529590076471145,-14.817568553117571,-24.525203384249814,-5.557780800474962
7320.0,5.5801558381028,11.144258964093474,0.6994512698924946,27.333945106188057,14.753476362838288,-29.950150769083066
7340.0,-4.461177677293349,5.712226290533854,0.18497305419610555,-32.566438259052006,-1.454003376860225,4.921950856605105
7360.0,2.224986971271012,17.432073885644602,-0.17349712039280307,31.440385368678104,-20.791378938975242,29.216968038924264
7380.0,-1.1439272158910048,5.109060363099634,3.6327239704896277,-34.153757024150295,24.39163338093017,3.4449829746826235
7400.0,0.9584442970459145,11.062965121034356,-4.450266324568125,24.802341971118647,-19.48262031643045,-31.811755239208296
7420.0,-1.4575235997155234,7.328772395331536,0.24146248805394677,-11.31305238375591,2.7509694218765124,-2.647414646929108
7440.0,1.9689916479104344,12.493636560068166,4.120512890700444,5.213439782954792,14.29569285247876,28.651626703351607
7460.0,-1.5616456923695152,11.92383279896665,-2.916704281647746,13.935743330388954,-25.929616175208714,10.100973701220138
7480.0,-0.3276890478266056,4.411914760376499,1.11789370649581,-24.677071384760744,23.110942419386156,-27.592689977770586
7500.0,2.9973204579362944,13.01061506137447,-1.3532513104913166,28.91079696260147,-5.001949080395348,-12.467246746412977
7520.0,-5.8311119531113595,6.8065470166132895,-0.019872811430661608,-31.920085018284983,-16.01061586696587,28.97291757389874
7540.0,7.041882750767447,16.089352486228577,4.418736525611469,37.140382520485346,23.489699599059833,19.80247862352761
7560.0,-6.3957911314959635,3.581393446176137,-4.687401470132946,-28.888675091116987,-20.888408511151795,-23.19718209790103
7580.0,3.5086140581596106,10.896050750189326,-0.20808551480233034,22.58353062506646,7.116352883237991,-19.623476467709434
7600.0,0.19298294877064862,10.49520195949779,3.0622315224871226,-7.508382790682611,11.167736808226014,22.75651704315338
7620.0,-3.159567846824479,10.761906985575637,-1.4186905562414158,-6.58626844457991,-25.915388475625974,18.864757537150844
7640.0,4.711354742863206,10.920843232917404,1.9185455119148798,16.72928075026863,22.48983140307216,-15.170476843501739
7660.0,-4.619245159574233,3.66411646307591,-3.4004234523468524,-26.703563337437327,-11.927322912103678,-24.7306049636706
7680.0,2.7518806413800583,15.669699947893944,-0.5029847033295086,35.836480347044244,-6.8955351505438545,15.492705340025198
7700.0,-2.000306135798184,7.20743044094963,4.912510026698853,-33.95911923119479,20.69867176339938,26.8147679248371
7720.0,1.233587272558044,13.383382058582919,-3.9933381470122002,27.43842801925869,-25.818947829477228,-8.806273687532972
7740.0,-1.5458401864473663,3.464849525662013,-0.488000229686005,-23.961818530089264,12.744453133078089,-28.33706579895625
7760.0,2.381721039725333,12.046374781385154,1.1280019399996755,12.810670368027806,8.090730939723471,4.842843518887363
7780.0,-2.753039683420017,12.016072861009842,-1.2049884807956452,0.8612474241489403,-19.042809133016142,31.94958401387639
7800.0,1.4005621359494231,7.71912985200586,3.039755176048728,-12.601244908526436,27.3564352148427,-0.41909657543249557
7820.0,1.138670509047738,10.554591313917358,-3.915569436241975,22.09403570420569,-14.490709285734614,-30.299080668087527
7840.0,-4.5839401594431886,5.319240829203023,-0.8497931720086092,-35.0121150347405,-3.700294537289344,-2.869177100074456
7860.0,6.9930171405563435,17.2759638213956,4.6568059884656305,31.68018609443962,21.962552562749387,32.04788765920243
7880.0,-7.046232509840223,5.837879567604427,-2.753067759610854,-35.79006229848637,-25.447801148603094,7.457165763420962
7900.0,5.2764608692214905,11.372986514224998,0.30484147893008,35.547944334953,16.42077421909605,-31.82217014441612
7920.0,-1.9288367214553883,5.983171685095759,-0.4901258441139586,-19.25307734071208,0.03748088357790902,-7.358031136237466
7940.0,-1.6252986276882742,12.891607001271952,-0.4337930728235118,2.7950895740903574,-16.928362328081977,27.091621605464834
7960.0,3.81430983274376,12.19294317844749,4.705845239098129,4.315495955533676,25.236078549579194,14.522180380388486
7980.0,-4.236371305625304,5.32555929503824,-3.7728499614921738,-17.623497258742535,-21.30295728418771,-23.823018922839967
8000.0,3.613200544798542,12.408589828614582,-1.4352348522818241,25.10001010461772,2.876181218023647,-21.29424898762335
8020.0,-2.1474010469719778,7.103837482539028,3.882921758659357,-34.18157482743976,13.263319892503695,21.0586609960218
8040.0,1.7194895582235088,16.447833090418204,-1.8521625863706563,35.72426858759796,-23.610713629038102,21.500095528588414
8060.0,-1.177543371519587,3.8819601067620666,1.3615027760019858,-33.00658316010562,21.78509736829839,-18.803355834693292
8080.0,2.7543453386421617,11.388110676992795,-1.950694375328003,24.956913287316947,-3.6664993828666783,-22.416425694969284
8100.0,-3.510300650626577,9.266752235433898,-1.1110351359607784,-13.665972577262169,-12.215063379366446,14.481351180746154
8120.0,3.069770201736268,12.107708857656617,5.5704569657668594,0.2345111243583468,22.73643478875867,28.412683152973308
8140.0,-0.639613963035665,11.002914380346525,-3.483059354831136,14.273934294324794,-19.49177742577944,-9.222703758927778
8160.0,-2.476103007354671,3.4935002031696203,-1.2681150683993132,-22.49981302858031,2.6985423196247074,-28.217564902025625
8180.0,5.847730049192646,15.000704851083704,2.2764434384710404,34.163365343849875,14.175034573968954,7.362633542787661
8200.0,-7.671353632257499,7.868772358169479,-1.5506199752422796,-36.09717484237104,-25.75447386697902,29.22027574343514
8220.0,6.530773139289701,14.202575716437213,2.9757416306603783,29.29798504734275,24.324585254069532,-2.934696265842877
8240.0,-4.391278124483982,3.090418795134835,-2.6297246520465185,-22.25674912745677,-7.92540136614248,-27.745883606468468
8260.0,0.49401306520949795,12.406798126657165,-1.860346048276726,19.364525699547425,-13.529872465341768,-0.017271404275983393
8280.0,2.067653088608102,11.696126556881424,5.033343879339091,-7.110449955965928,23.036563423077787,30.370766680185422
8300.0,-3.624913980799397,9.511223298344985,-2.638100266668439,-5.5888308288224176,-21.112408032120648,6.406572841436837
8320.0,3.389389458754495,10.575979317404588,-0.5043915683843726,19.111983987596776,10.385577080791743,-30.06830382179001
8340.0,-2.738404233237608,4.899780914443147,0.6907492236507158,-31.397749479528038,9.558400270754476,-10.38566733845802
8360.0,1.9575068944624385,16.702148838664645,-1.0081970731607481,33.12819850115059,-26.388627503498697,27.73185752881077
8380.0,-1.7894456812952846,6.466975368713459,4.158337944206568,-33.31632897309651,20.970931209197023,11.814470868009437
8400.0,2.8473318974595183,12.325557144337383,-3.42284955463384,31.018638745814716,-12.861205036355896,-25.566196729859055
8420.0,-3.48549132293829,5.027129122035573,-2.2461410492331075,-20.461152433637324,-7.525028957571736,-18.501146137310183
8440.0,3.7571587728232223,13.096567765706865,4.400106549791549,11.483589516344088,21.565728264105704,21.9714510500915
8460.0,-2.6842591338784105,11.828355177946422,-1.9213739241862966,1.5920385406930342,-25.320239354760844,20.100295924855015
8480.0,0.041089235606639796,5.765217784326518,0.8797160909179653,-11.400013247617286,11.211208957167775,-22.028295132127223
8500.0,3.6190683773477987,11.147210562853536,-1.3216253469732515,25.255862102517227,5.345661794294374,-25.4054780637291
8520.0,-6.382615002405933,6.447208880733609,-1.4619319850986185,-32.98568370583603,-19.978625281480618,14.863311598643314
8540.0,7.302036542525525,17.14299572875855,5.4721892499420814,33.60218862545931,26.96582515413281,28.900869657344256
8560.0,-6.17954277847499,4.203889463197875,-3.2308651924408296,-33.624191096683795,-14.588677178449032,-14.599796929353825
8580.0,2.8443984773069193,11.109961702274491,-2.122594675693184,28.33380082043003,-1.0253649318653053,-29.729481107514367
8600.0,0.21224057435994736,8.148624763123017,2.916386541184008,-18.234803687441183,15.413054083439159,7.605192147641607
8620.0,-2.4029528907903455,13.194952996163806,-1.2502167802674036,6.229377318506951,-24.567776828439314,29.565849778242395
8640.0,3.249332075892476,10.701070332137522,2.009287301543555,10.172250163781543,12.185095052814514,-1.1507298904328556
8660.0,-3.0088013236242466,4.273177630925526,-1.7604897731729217,-21.425051063318172,0.9455018947066738,-29.638446871942943
8680.0,1.1220526548309029,13.942875559172613,-2.3237247085639128,31.61751782541844,-15.683008862075454,2.6086589885676985
8700.0,-1.4720350728365355,7.543673282621064,5.462496994964011,-34.54347340092044,26.12337771350891,26.507776595972754
8720.0,2.277656060627245,15.049241648973803,-2.5304126906104303,33.45410538694454,-21.086753230128554,7.271267017342096
8740.0,-3.43555341248139,2.6205196561994724,-1.6054442792263315,-26.720678509798336,4.012353440375955,-29.432247718574633
8760.0,4.3238524834357355,12.235569685754397,1.1890126593036696,23.000853331811722,16.07433354456399,-5.084608244941167
8780.0,-4.266791765875771,10.523835215688344,-1.5385592429166473,-9.290451240198442,-24.268036056711235,25.288139898253615
8800.0,1.921728862937758,10.44819731415105,3.5797137259858216,0.42480240352651055,19.849844350280172,14.41690645656063
8820.0,1.3067417520004085,9.719594153128403,-2.056460167137057,15.075642793355414,-6.39644543625695,-26.428220259790862
8840.0,-5.121028002368298,4.748117664547929,-2.7518446450714205,-26.51994542002276,-10.465898687645442,-18.575188861833453
8860.0,6.997854090451586,16.655878690492024,4.96879711661016,30.780523616375614,26.205608976949375,23.330266590813675
8880.0,-7.026336114214348,6.540632537860296,-2.032513929281501,-35.41453212899688,-24.236859033518627,23.614422806718217
8900.0,5.00751558897757,12.58033084261397,-0.48108381724248706,34.752021233326765,6.622898836132049,-18.632833742513608
8920.0,-2.3074335860602346,4.155269535476552,0.12686124402154925,-29.722877331280664,9.700547659599577,-24.913467126841137
8940.0,-0.7345576492904007,13.644058626833804,-2.2109128316051336,16.492054653507687,-24.390415174343705,13.055246432611959
8960.0,2.5280971193304547,11.408149477966614,4.7584941982337785,0.4881112054534973,23.589981884390802,27.17781583247612
8980.0,-2.592218376963314,7.662275103611492,-2.39650700629451,-7.54848326449844,-6.746613737477796,-13.212288107282813
9000.0,1.4796885345406288,10.426760887608904,-3.3432154310093267,24.465453873644478,-6.599330945210827,-24.757150895273472
9020.0,-0.974341020941281,6.493641697622184,4.04354839774565,-27.80793468917894,22.943042346618622,9.616678149590353
9040.0,1.477209626158051,16.905837651743397,-1.5125886555263488,34.8652035543098,-19.86373129509263,27.701539548021337
9060.0,-2.7607809157549204,4.1867003590070215,1.3847957494493313,-33.201614585118094,8.94042086842865,-3.487840493862539
9080.0,4.758558457194825,11.278294855095286,-1.1156656293720282,30.963246289081756,8.831511632339657,-28.693407735517773
9100.0,-5.34889046893976,6.733194945263441,-3.2568216400261174,-21.35385616335029,-20.334367928540427,3.499051000063196
9120.0,3.9884305557814588,13.6280444931125,5.545474197306422,6.117185822633246,21.56246483939073,26.869426436932834
9140.0,-1.1756821286347998,10.547329456163334,-1.5065655295533773,3.8512871692569925,-10.353791252476748,3.29754887840804
9160.0,-2.7870810582303545,4.844394313314774,-2.5054636731747677,-17.5473420242423,-3.2552681752407073,-32.160247968016314
9180.0,5.849007946325577,13.117718195565518,2.4811342420372915,25.902503764004482,17.132339064965503,-9.84222231651686
9200.0,-7.111141458228132,7.1681707681567985,-1.531652546143242,-34.53172140528766,-25.12014225591586,29.817125983495874
9220.0,6.877778899117131,15.581730986856574,3.1483759721734685,36.536981489628566,16.862944395189025,11.61136537630251
9240.0,-3.458951767089688,2.877320004059236,-1.4698815272350527,-30.7932412171337,3.1777517086456113,-22.91627416961762
9260.0,1.1737365417684376,12.162961794814798,-3.486788401305677,28.25879664767007,-16.26275450740446,-14.21599058501766
9280.0,0.9568245700931584,9.933850274449645,4.956585090305068,-13.852901039544165,25.44790623027109,25.386100767406
9300.0,-2.1743234228120234,11.882100044081529,-0.8651614459852951,3.3742476788075395,-18.303659867626187,18.96571864285947
9320.0,1.235336871047156,9.459903056199035,-1.5577594155049208,7.2396137705782095,-0.05055043038922341,-22.784512107120793
9340.0,-1.0163095970908764,4.754015504543805,0.9860731564001026,-23.26916392721713,16.614715486460746,-18.319906587454714
9360.0,0.8666058344012436,15.841190780708558,-2.1984536611891863,32.52245010304523,-26.685313383543306,21.37100037076997
9380.0,-2.277540040297262,7.114255559980777,3.927830391271851,-33.50920276232017,20.308600251168777,21.539159962547526
9400.0,4.341063133535816,13.475633426875824,-1.1478574909745718,36.1198123739759,-1.4805262484938728,-15.094938981973838
9420.0,-5.724511624459372,3.7140278783470246,-3.741912651094977,-27.720236080784943,-13.726660132226007,-24.34346753134041
9440.0,5.251805737944369,13.818185207088684,4.2446068953523595,19.813035385125858,22.209836758918193,7.734377037519181
9460.0,-3.426191791994999,10.984780886139886,-0.689661663926872,-10.732703685909156,-20.636438232900645,27.07900252145153
9480.0,-0.21551501513382026,8.668886203381843,0.23565361022895145,-6.310947509469642,10.233809793964888,-7.39653911593593
9500.0,4.2740051882627315,9.952155857564314,-0.23323295875037006,18.019356289821957,12.358058954444344,-30.151903863970876
9520.0,-6.627279887804841,6.4219097644688,-2.921215609407752,-29.91539613125798,-21.651443524965686,5.614127782344205
9540.0,7.191020335213572,17.57283843548206,5.025876738039534,32.51117993714877,23.53523889893527,29.713133534417057
9560.0,-5.331096064041842,4.892687457261736,-0.7066094669806511,-36.082271222037086,-3.483172293112255,-2.0085004296622513
9580.0,2.98798865510574,12.09288838720686,-3.70192028157974,31.690764548439528,-9.80093931010052,-26.392671252974196
9600.0,-0.681097890454819,5.841472815969733,3.0947866817970366,-24.065559278206965,23.17022565605173,-5.223151022163782
9620.0,-1.1580097275515122,13.964300573930137,-1.1588146381985696,12.277100721759151,-22.821287377520015,30.227997691998777
9640.0,0.8938968794570417,10.375739009656769,1.9853236284653641,-4.071471471406554,5.50813402863392,6.761286938673749
9660.0,-0.650172787270598,5.866785822562198,-0.27338205824756,-9.193729202463846,11.097494698160478,-26.34006037567011
9680.0,0.404726644539768,11.498884431695322,-4.089724383887819,20.033862483035595,-20.98378654448633,-10.097120036901083
9700.0,-1.1825271521179228,7.794807521448849,4.964567383626969,-31.542713825554763,23.201177249727376,26.144862704997607
9720.0,3.2269135777843005,15.951632577231907,-0.40960687348679653,34.02120425461349,-9.045158480105632,15.266710552638866
9740.0,-5.537830614424758,3.2206739984815895,-2.59700900090834,-30.28189286385406,-4.407060798685088,-21.851058820851126
9760.0,6.062270639671339,11.95658304799585,1.5974140224339395,30.794002939929786,17.498372236540405,-22.97931716905136
9780.0,-5.697386823942154,8.575223843763181,-2.21837456902635,-22.60427048720156,-23.47026235540393,21.017458732326194
9800.0,2.4273081976734634,12.792397271590021,3.402150431381449,5.692499680274135,16.041472074675667,23.099232483962357
9820.0,1.4129047595707158,9.320668090947796,-0.4464423302030995,4.529340168360114,5.264748051358535,-17.060744193504373
9840.0,-4.421652986070052,4.842971871526801,-4.460286041214984,-18.994227483584048,-18.35854628822748,-29.416950280368376
9860.0,6.614424153135061,14.780716583776803,4.512113799560266,28.243901711069466,21.696796970514505,13.844111733668349
9880.0,-5.716885942362489,7.049782664669243,-0.21505076488177927,-34.37526886046429,-15.436160369127602,29.448515294718625
9900.0,4.050930586186078,14.249019268287318,-0.8848328090866734,34.72208704506543,-1.4089710019145005,-10.802226676801842
9920.0,-1.9213415375917375,3.045698526500483,0.6411985879020536,-31.544081093936107,20.433601942440244,-30.033924749274597
9940.0,-0.023076943367553046,13.395410439296949,-3.2577122316876865,21.1617756106875,-24.29505935669125,4.393317978140645
9960.0,0.6140044594100176,10.71168294704893,4.767641710255272,-14.264682847810926,17.493217528143663,27.097236592349297
9980.0,0.19165051902366984,9.844083237413725,0.21615245601766783,1.8453631096454906,-0.9407422899385756,-2.066106767616981
