timestamp,ax,ay,az,gx,gy,gz
0.0,-0.21748448292890502,9.63525322130486,0.09246151573317417,1.540970700078718,-2.504345946869976,-1.3957760182873151
20.0,-0.17643568895441852,9.102658149691923,-4.427174716959487,12.452448889635027,-17.506368819028854,-26.58684093414518
40.0,-0.027329472825303014,6.197931237366009,3.066915966252003,-25.886452142136953,22.507620028650308,-1.362109660141165
60.0,1.7923735285335145,16.769734747282975,-0.782845825545909,29.303958265704104,-16.05999528750924,29.59517168118443
80.0,-4.204942263047458,5.6831068338989645,0.737196024812158,-32.09334025486565,2.6264669779284295,7.961946917308831
100.0,6.003349972452297,12.093628425962619,0.28401857191174446,30.531845434714185,11.836766081877718,-30.298731679619916
120.0,-6.617911112596197,5.047582656082811,-4.588997104923909,-28.43114087520995,-21.57275086663111,-13.914040368670467
140.0,4.442249757400351,14.721291545291818,4.546695981742174,17.73877516201882,20.288472123577865,26.43982928692548
160.0,-1.121098090884833,10.445907361887981,0.5613510808394533,-3.936278477529298,-5.862362980208199,14.05054431469673
180.0,-2.834170835129364,6.942229004965929,-3.370996800582382,-5.493939172883232,-12.018501752379859,-22.928511947054837
200.0,5.4436338108303195,10.78211249267506,2.337099813455039,19.03752322562696,22.508966918336924,-21.133365002800826
220.0,-6.327828218087585,7.897080858059291,-1.5472071064802613,-30.308264032289493,-23.604038976738895,23.77484327583809
240.0,5.2816982660943985,16.629263065010694,2.606406472273927,34.68735862426815,4.591568578248794,20.36908105385222
260.0,-2.9385171197859545,3.3502277681138777,0.15031970698556335,-39.602133957443684,13.879878241847324,-16.883796373939767
280.0,1.2107362240392876,12.21229540957183,-4.810077665826412,31.220169411168513,-24.471380098186156,-24.612011814318837
300.0,-0.1478685161592753,7.7378176665265554,4.126553911122091,-20.15474149539387,22.270561995771217,13.22887641597601
320.0,0.23016563116649177,13.72098208100471,0.6191005812882535,9.612920036202322,-9.676555877452838,25.70380737386911
340.0,-0.8047387626344931,9.082688826804981,-2.0554917052110415,-0.041063544677501174,-6.976159342664019,-8.973605376724603
360.0,0.8455373998628175,5.585275863261519,1.1920084052580098,-15.312122607041537,23.53276378580562,-28.10857292148929
380.0,0.31278394023123923,13.586048372989675,-3.096771395050102,25.53521654007847,-21.983328394139306,2.8029474394479803
400.0,-2.6513796329526085,8.035289350684542,3.650811969403878,-30.093172036344058,9.18711721105683,28.43599655648993
420.0,5.344992005159562,14.61848310059493,1.0680987169552947,33.29058342523941,5.56248593632883,-3.1780091614953365
440.0,-6.91891873691251,2.7729593317400014,-5.316431120463855,-35.01400797161519,-20.6300324173331,-27.40509756916838
460.0,6.436907412616231,13.288097424600476,3.366864959568752,27.254262947248808,22.4510796261099,-0.9252944106122141
480.0,-3.747418414019109,9.94063742952052,0.47292103279730235,-15.18473608203266,-13.030955046836821,28.89141586494213
500.0,0.2060898282391186,11.279365065511914,-0.14637595074895188,10.248041391896962,-6.682460270224589,8.5581595973817
520.0,3.6849688913185665,8.583241211718885,1.3148953807325139,4.810094700463755,19.44655098323987,-28.65664457885529
540.0,-5.5059883652305714,6.148042419338203,-4.454843081862249,-18.59633456301556,-25.879023496041746,-12.309635565210701
560.0,5.552930941213877,16.18443286470257,3.7867311697641886,28.212144950491222,14.221327956312368,27.078157207125013
580.0,-4.2037790520644265,6.231331260478259,1.4482917113431504,-37.18259527468749,5.718950937164221,13.311953364518317
600.0,2.1913222430369763,12.332419744541633,-4.4918808367894485,35.644895025997386,-16.31363146366879,-20.929570514972333
620.0,-1.0041485432053379,3.637516886653305,2.33690746313901,-30.89261176861393,27.374206147755945,-23.28999118374348
640.0,0.8980842715826343,14.66599347278653,-0.9269722111962041,21.007356320584833,-16.671918461825555,21.470350465454782
660.0,-1.380190714837998,9.633237529477586,1.764914667104513,-10.597129423566656,-3.717488562266824,21.088973802319487
680.0,1.8500796104208317,8.169553116972923,1.0984149252595878,-1.802713480979373,13.925729405331653,-15.84270013983026
700.0,-0.9192576328344744,9.828942784793174,-5.3974854444587494,14.659010999083689,-25.822422892216522,-24.15029254029672
720.0,-0.76178197705249,7.714951529456467,3.506366474339662,-22.72646213177645,18.974642675805892,16.148222083068028
740.0,3.7177371276673643,16.767451492226908,1.6245475274411507,29.435385324197203,-0.12246719041103571,28.820526731104746
760.0,-6.061884398289869,3.8428811938474055,-2.7885893996270927,-35.33905300542186,-17.5794483284573,-9.35985676287559
780.0,7.309320940417446,12.10768058043565,1.528994646201849,32.6784814373827,25.47092467467317,-26.719918147773082
800.0,-5.550883235149675,6.350279927750258,-2.5158562592404206,-25.855438332533762,-20.456914292741867,6.560397777035781
820.0,2.3045296507497737,14.613039268798929,2.4961240463086143,18.03761894983639,2.709238437387524,28.958038284705196
840.0,1.029471594307255,9.239369528302925,1.5751417472779257,-2.2473082515442133,11.924307922522408,2.6358110039132985
860.0,-4.2492652578518,6.208472782190432,-5.548135611369188,-6.482183241374584,-22.050840778335523,-28.21821832606716
880.0,5.465788850573389,12.433579050063818,2.982754154885037,21.679774282944376,19.749041127290578,1.6646672266363942
900.0,-4.569693600002496,8.062209420475691,0.8222075343002848,-28.837057741430677,-9.547393363817372,28.33742839201011
920.0,3.2944793782588633,15.132311286594296,-1.2125505747314023,32.1890019284243,-10.474604603361223,2.2849536013480676
940.0,-1.435557168194944,2.4176533324912155,1.2933980614638887,-38.71548765554135,21.92047337050479,-30.46748389794436
960.0,1.3290213757679297,13.15563280853466,-3.8578838041669954,31.40780387115651,-20.59623451669637,-8.634844916257965
980.0,-1.5504327318206073,8.898353655370341,2.8652680556323573,-19.776033389194623,9.20550855485573,25.67465974730425
1000.0,2.5308950518974282,12.240153123014435,2.2658487594821373,12.158181371447293,9.47543258598412,16.072502110203185
1020.0,-2.2887580478071152,8.098842912746788,-5.016771904264114,7.624117774259219,-21.666193516122927,-24.190316565406437
1040.0,0.8041284115324717,6.195187023665002,2.1401165593250404,-14.890773770073599,24.232083536768716,-21.181786566697273
1060.0,1.8847291380541122,15.111987697322242,0.16941229868338362,27.622378734580842,-9.990407626658794,23.37110203871931
1080.0,-5.185610437455516,7.095674045399636,0.4709922551443737,-32.83422306783419,-7.356575832256614,19.799450497604635
1100.0,6.734013703057623,13.048850595648553,1.5091804148643169,36.19170952383089,23.703446326779634,-20.125424478237633
1120.0,-7.244605503790771,3.32081985580568,-4.937110322961466,-32.59960000030073,-22.45865435041778,-23.314921380531082
1140.0,4.682486488696715,14.45661533178869,3.1253092854843527,24.43223877856659,12.705603502278757,15.564390625011923
1160.0,-0.9808768135777834,10.02391310294212,2.224266462801835,-15.253089133938582,7.328460851655545,24.36643085587851
1180.0,-2.2782972694463863,8.841835676764418,-3.5513382103489013,0.6845328572580076,-22.075021132740286,-13.56079727168267
1200.0,4.311577893104265,8.93095935647924,1.4677017216425887,11.729655126199214,22.011799689477797,-24.837945609416938
1220.0,-4.608951339154833,7.110327919854884,-1.465750321865447,-21.936298107810558,-16.190560796373042,11.11347130310141
1240.0,3.533272263079386,16.663341540035443,1.4705318697176812,26.61880604007175,-1.0183056841931586,29.77208708924664
1260.0,-2.2247732395240103,4.354483676582804,2.2710193790805997,-35.82098675203286,16.69090684587821,-6.449835245714966
1280.0,1.6271694909330023,11.87628264319747,-5.615154122635052,32.2833576033941,-25.517104895067867,-28.24696752745347
1300.0,-1.6920175115851173,5.7342871173468755,2.321452151410145,-29.48866999040013,15.147779519284576,-0.5643592524208931
1320.0,2.4306551371965632,15.475306101758553,2.463189795210342,20.38339260257091,0.26601161246998417,28.725542984566744
1340.0,-3.1561189344792844,8.781533188344138,-2.269596166217916,-10.74072629265832,-16.482104641101493,3.5435110377346013
1360.0,2.6520323675746,6.450576690454792,1.9535933932455127,-1.857064144608223,22.629157109892034,-26.702300974199428
1380.0,-0.29137461511339946,11.531534838604939,-3.033037802627047,15.70200882569614,-20.285620762169877,-9.002814996049503
1400.0,-3.065056232245457,8.673151162445514,2.396288239779135,-23.604687359566107,-2.600698600169024,31.418286490034003
1420.0,6.032532254115832,15.791537096951075,2.668185532561508,31.01358006358762,14.543881977689248,11.334271082493657
1440.0,-7.9099348793048225,2.337646664490544,-5.018779345804669,-34.37186124008922,-27.489271159137672,-22.479864930151322
1460.0,6.441358722177772,13.057948808491886,1.8989420455255113,36.52797051327312,20.56607953079561,-18.51127475083068
1480.0,-3.3395414982254135,8.01762131505713,0.7562908090423717,-26.305344794319787,-4.132951350237093,25.79766627473582
1500.0,0.4871294245279338,13.629667378106722,-0.6006770095503312,12.739006363307862,-17.874785781487713,19.298622459707442
1520.0,2.4950670300456412,7.741156422857152,2.2372429202677333,-6.865510601430097,24.69306107583901,-19.91276830926767
1540.0,-3.883634835434892,6.07872506143845,-4.648209609015611,-11.01468527354549,-19.14573956756226,-23.647591941546704
1560.0,3.529399515560626,14.491710333155822,2.123789782902179,20.3777348164852,6.617282395310805,19.552535595582093
1580.0,-2.584201790436625,7.559243425243953,3.231814315114408,-27.13727440031897,12.272262917778841,23.33218521631781
1600.0,1.6351208232081216,13.407122588324844,-4.360084905646755,34.00905528758329,-21.075229316102263,-13.838529461630133
1620.0,-1.676123228247172,2.1842107499024364,1.360257998831342,-31.37245229017763,22.702811666796055,-28.101054432169313
1640.0,2.5219140113175733,14.999273440421964,-0.7047842710092121,27.172916826442876,-11.840770136529555,12.244319350644677
1660.0,-3.3483944851210765,9.553324513729594,0.636426698512047,-19.708382138389368,-10.501301359677823,29.91644854637526
1680.0,3.9077317174624873,10.517552119896813,2.602910631862386,3.0819701320742023,27.73123849213694,-1.876563390063522
1700.0,-2.029114554945993,7.9840331173212595,-5.3137036699533,6.6674281767406445,-26.25425483847603,-28.228079992202606
1720.0,-0.6667388362853444,7.8090897167655955,1.5439483844051456,-18.736009247282276,13.997806284074402,0.006407858233050012
1740.0,4.5094215940071765,16.255947592780032,3.0867822353491725,27.582492352661536,8.452159193070667,29.553416533165755
1760.0,-6.707537024547019,5.316977291222614,-2.7651265132833864,-35.441496172765774,-20.670686302804548,2.7787687543721606
1780.0,7.427090388683657,12.218924447910885,1.0954441137678728,36.92675733492416,25.22761143072476,-30.272753740328895
1800.0,-5.431885734070196,4.755742445523394,-2.33304478638855,-30.252224348394645,-13.339260847861068,-5.179107744538163
1820.0,2.4647652014650525,15.36382822591386,1.3107227993701676,22.59726282089588,-6.507841262613658,28.035291897070834
1840.0,0.6767404687391504,8.809232692260924,3.455199002250567,-11.0409335243518,19.82007235988806,12.06050920637101
1860.0,-2.7313250222763443,7.329244959025592,-5.039917695256781,-1.7105909125652483,-23.90859635151532,-28.197459819263386
1880.0,3.3806147368141275,10.387074513062688,0.7115436625171161,10.667821313405502,18.367856330221134,-14.59450516379654
1900.0,-2.846370396002657,8.667742685752454,1.9815380301453311,-23.646548564043318,3.5234977452106797,20.372328638474638
1920.0,1.5157301358620379,15.685668501544578,-1.0317308282394935,32.71772417437356,-18.2315255945857,17.107831756724615
1940.0,-1.5327497194057598,3.1706255992754295,1.8322638961809938,-35.10101461059237,21.814995743136357,-19.836342721878047
1960.0,2.487853481711274,12.84905792742844,-3.782680599446702,31.93023923105948,-16.395160216647927,-20.93469565253203
1980.0,-3.423952215784391,7.415110866270645,1.4831292305533175,-27.988104558850537,2.9555232485160787,21.663352685161712
2000.0,4.518963933096343,14.515233870604765,4.058730808620802,18.112906158891356,17.441788900885026,24.1324918055526
2020.0,-4.176972199159839,7.437252900895304,-4.300676055207193,-11.900061715324721,-24.22613169604985,-16.105585096910456
2040.0,1.69462542913587,6.979815168161963,0.644550395969644,-6.863596938509988,20.36908581168407,-28.602435285753206
2060.0,1.8179835179563213,13.575419084778211,0.9110757119165701,18.02851943648013,-1.6426437793637954,13.455754654216566
2080.0,-5.6677505250385085,7.976372426057508,-0.38480523628377233,-25.08288187200094,-12.656038732593315,23.69732534516617
2100.0,7.14268220971212,14.180338433835274,3.1199751275724,33.457878067017575,26.330519580959027,-3.0219899923274207
2120.0,-6.838380063905882,2.4773491387469493,-4.710396509993817,-38.505687661164224,-17.110693686095587,-31.273362117206798
2140.0,4.22091024446887,14.565285911666997,0.8008866988319072,28.90800998295373,8.197061649137222,2.5405748592469375
2160.0,-1.2344071233581908,8.780302801669732,3.5128425120202333,-21.864499747572196,14.278193314898628,30.80880680431741
2180.0,-1.9220868803382238,11.767821841141632,-3.680354699549029,11.896195493880759,-25.71086778920153,-1.5942935924192032
2200.0,2.717625651591302,7.476341855065424,1.0326868978032009,0.381049981428958,21.23227380601388,-31.830858115067937
2220.0,-2.5912884252639676,7.395475600049127,-1.0631117843880973,-12.166135589273974,-6.625652787625953,-7.6934221773619385
2240.0,1.6811665841473566,15.570762114040003,0.1346697132412411,20.669566722413975,-10.33752253684638,33.321148980466035
2260.0,-1.4659907307537325,6.06285515784602,4.127513369199683,-35.16876768543781,24.043749079905595,13.334057552560738
2280.0,2.051954673889086,12.622204187711462,-5.201596671340671,34.78649049587083,-19.891705666732534,-25.876105154554146
2300.0,-3.002412484554713,4.244815443743322,0.2431352076174199,-34.300127574466885,9.323944851791827,-13.302471899377867
2320.0,4.704098207555547,15.719892586250301,3.251108777059776,27.86213767246674,10.729988205164602,24.401564287661696
2340.0,-4.966363160971088,8.573578893558492,-2.1996909629409407,-22.32189388435758,-20.497199782405858,17.404400452565266
2360.0,3.7831566485686103,8.705995813824295,1.8759362386445342,2.0821860433443713,23.292715076166395,-27.189463520298478
2380.0,-0.5299516888621307,9.05681509614789,-2.727084192447004,6.376890523145889,-12.494127905491345,-23.53844396685558
2400.0,-3.524721682378037,8.675973889493168,0.5465858233467977,-17.4171002436944,-2.5564884780377204,17.027505914269945
2420.0,6.1714503515169925,16.410075670970134,4.531391669478243,25.583748975511995,26.565288455460696,24.840775809450918
2440.0,-7.1582512633802615,3.448948899003152,-4.010209452624989,-39.15752446487491,-25.372011369647716,-20.424289582356135
2460.0,6.20307044584811,12.58289032925969,0.4838186980658319,35.91516867207479,13.976551344341662,-24.10921693118203
2480.0,-3.3816553663010915,6.734278329034845,1.605468390231935,-29.326798394940063,4.760528433005955,11.864411973511055
2500.0,0.492758829468115,15.584464851804146,-0.7798579406785557,21.128665320007933,-22.602750822513126,28.10856118467272
2520.0,1.5151162690337214,7.397853517735393,2.8029449316475503,-16.18630719836361,22.552427514998925,-7.769894180877101
2540.0,-1.7512080757263904,6.763443184673414,-4.198598126859714,-0.15286143359301962,-15.94106926084744,-28.552351856743407
2560.0,1.5594718921983104,12.358740652920863,0.09461967718407446,15.965972988933743,-4.3169979172330954,4.440981281222186
2580.0,-1.1045976671167828,8.634804856118691,4.4806790011481965,-26.761630286234507,18.20367059344723,34.185726728263944
2600.0,0.8361605390103735,14.603014952612128,-3.3047873517398583,27.804145481846355,-26.77418949288589,1.072284666678506
2620.0,-2.606661374445014,2.1405220178726805,0.8296013557419577,-36.46685808971695,16.73110923313937,-33.267113487738506
2640.0,4.30462531840306,14.374158645137653,-0.166923174775443,31.83805448052512,2.7468138149565036,-5.646281347385562
2660.0,-5.34877111034435,8.3070955895196,-0.7487956444865091,-25.271079722618172,-15.700662509878807,31.426734312918864
2680.0,5.210150470344551,12.890588881973057,3.9696376741912918,18.335139883663977,27.584892698247938,6.954559549822217
2700.0,-2.611025415699545,6.523959150749678,-4.46625571446059,-4.60898077042205,-16.536463982356228,-29.998900837796903
2720.0,-0.7118908781535956,7.628021267324492,-0.4781240354072196,-8.573703071940946,1.2172172611340328,-13.27884241882645
2740.0,4.518399951757992,14.964299171016938,4.0989868271702505,21.041311564488673,16.747368462473087,22.895362627195734
2760.0,-7.02095550344906,7.134113890058313,-2.3174136726039976,-28.05452698732808,-25.44376318636629,12.174185463284607
2780.0,6.865448387503047,12.560725192605089,1.1502345630903037,33.3896555694445,24.775684955024055,-22.120646292011077
2800.0,-4.645351023537352,3.0645911234383307,-2.1968619361358552,-32.75684880554535,-3.8568173660170397,-20.48516542525149
2820.0,2.3260624764905833,16.177381302478324,-0.45846195054356276,31.232622203857147,-14.014051436790462,23.289449691151514
2840.0,0.3051428015138725,8.570373629297153,4.668155519546975,-19.871645397091186,25.310944568190585,24.885174689824307
2860.0,-1.2565006696212957,9.591522887960876,-4.161273388068663,5.235710557740096,-21.428596466078748,-17.24383299244241
2880.0,1.2193419807753885,7.7943342486252645,-0.7853824543671077,-2.1325549177174965,6.959051832652778,-29.543492712225003
2900.0,-0.43775795896212377,9.097843836400006,2.433486484187862,-17.30740115597018,11.590194268862277,13.135775785586977
2920.0,0.18136999212115307,15.934247538734196,-1.6019365473612406,24.25290380272802,-21.97046269300237,26.48057022047629
2940.0,-1.2765552453005924,3.8420293569937973,2.4815694767613428,-30.11312723367591,21.711397664143988,-8.044379809866887
2960.0,3.6080269686866457,12.657759187913022,-3.0051812256821706,34.1329857050271,-5.949236372628386,-27.818187163007167
2980.0,-5.052936675108919,5.742533274819686,-1.2272140503589304,-33.40238394709545,-11.001779714257411,7.331545583255611
3000.0,6.022383409667376,15.604169288346313,5.608959356847427,27.76562301156583,25.102710521856526,31.651466752694002
3020.0,-4.972848735684957,7.436937674369669,-3.3935017310680307,-17.086771900016583,-23.90636797677124,0.2837400008114439
3040.0,1.4029082521894634,8.383633179313028,-0.3992252998522889,3.6255329631602153,10.839132812243566,-28.653941257159445
3060.0,2.172587892718254,11.123405369741437,0.8908437508885405,7.869404464208417,9.177412439353569,-3.0960487686408977
3080.0,-5.277737222318026,8.974700114160429,-1.1315540048364492,-17.045496639423618,-19.904602953813534,27.10406663239378
3100.0,6.914919904847589,14.783893283549538,3.7340580522991793,26.930964806307625,21.769616473362362,6.911043204058793
3120.0,-6.2720675093609035,2.5254826637003074,-3.8024716265433764,-33.780443823462626,-14.62724075004253,-32.331915082495236
3140.0,3.626317919078555,14.064073510437337,-1.5178473320642591,34.620870179870565,-7.1726605025436685,-11.364013923704391
3160.0,-1.489792806137499,7.968660603586456,4.428112682244536,-30.350271469971123,22.24799657861393,29.910772785757807
3180.0,-0.39295477058909667,14.160487720165085,-2.1624016466327243,18.950697047817357,-20.01106779580895,14.252541843382433
3200.0,0.6630525499619038,6.365382588675915,0.190162512708991,-7.625185853041351,15.848886333147659,-23.130907570324798
3220.0,-0.03240747648026775,7.820066427920255,-0.7272728290024746,-6.987848427652802,4.143106777842445,-19.79960904946956
3240.0,-0.29972081435569686,13.614408813696773,-1.0261901950363514,16.039132668719386,-20.994357503107416,21.637178862988744
3260.0,-0.2501104791761901,8.02227235698003,5.059173450174499,-28.012632855098747,23.72625790799228,20.35405214874765
3280.0,2.0223712683733974,12.783343878162023,-3.8209077367274076,31.37990349060817,-15.856700529011128,-18.344757765916707
3300.0,-4.549319266677985,3.0181771570646125,-1.5065024667505869,-33.15851591944834,-1.6641284976260287,-24.453805359109094
3320.0,6.4018319540685695,15.74313082669989,3.3387283594869555,29.715190682135905,20.506356161014587,18.748209320930712
3340.0,-6.100359700169623,8.607078573539065,-1.8978953644647003,-28.002611369491667,-26.30980243189898,24.782606709906073
3360.0,4.368419600599742,10.922364200792172,1.8763484090570695,14.72861070453383,15.02290274012195,-10.984632733937127
3380.0,-0.6503712237389229,7.150155777516024,-2.1471096627674524,-3.1158486825129956,-1.1202014199617865,-27.08940542878829
3400.0,-3.3679548545882145,8.858342389519263,-2.278104375768704,-10.628422253121299,-15.93504748894821,9.08682177025872
3420.0,5.9522039261264315,15.756047266518081,5.539935392078678,19.10292525550803,23.078326295527265,30.77326589997832
3440.0,-6.104825759014553,5.254186038374282,-2.715716858354717,-30.223789479084587,-17.171073004014428,-2.990270300221952
3460.0,4.509878180852924,12.411427518728484,-1.2785619869594638,38.020313056636425,2.677045974270963,-30.375152247301006
3480.0,-2.6909975595534403,5.112946194811362,1.8336313769789103,-32.455100038370496,11.413797962537547,-2.1148861884447845
3500.0,0.505517379990758,16.28189948949703,-1.5702933644158765,22.714502236959675,-23.427821248532467,28.230799737580654
3520.0,0.11141197967719374,7.583010642152454,3.270155863243857,-20.992984923661396,20.696089705858117,6.880010502018562
3540.0,0.657835529609766,8.366076090294984,-2.857891496273587,7.687850812069392,-4.199554267172427,-27.482955245117054
3560.0,-0.6757049294928485,9.470009450331611,-2.5395671433912472,1.8801360563580203,-13.610657167895909,-7.644291548334045
3580.0,0.749014218733966,9.538077226984493,4.874098279039367,-18.345287175786872,23.028017875189953,27.728555905918352
3600.0,0.6117798701307096,14.735173660565618,-2.2450667390055323,29.232677460095772,-19.145252717840904,15.999254644230081
3620.0,-3.276033899673282,2.7300930053086327,-0.5827333089194944,-33.32561350706898,9.49533183123677,-25.41120610623121
3640.0,5.56828071753115,13.221614702577233,0.49962903939084446,34.03683577677055,9.385044344050499,-16.425101143173638
3660.0,-6.837367113640031,7.3367453421588,-1.3610780296675418,-30.826299240930645,-20.890126761247462,24.452600661027176
3680.0,6.065595430603617,15.015832063665018,4.390300668912663,25.104727099301243,22.298246980176135,21.5656984752914
3700.0,-3.0571244942469336,6.2605678415537325,-2.958522546988596,-15.930680488602363,-13.623548439406925,-21.52939771124687
3720.0,-0.5797504073660906,7.6245699437146355,-2.783367109502901,-0.15611022155844256,-9.790023362001602,-23.756178858464096
3740.0,4.814596729074545,13.1463543815857,4.182170795849378,10.998518000103765,18.855523480807623,14.343059199204975
3760.0,-5.705631634383222,8.768087682167097,-1.5517900140240257,-23.594559976172917,-25.28677017162088,28.466110257130882
3780.0,5.537128835781276,12.88195311398711,0.8746141257210078,29.86270877154945,11.453488330081129,-11.559190925137777
3800.0,-3.9101493587100324,2.347401798882221,-1.11754922568572,-33.77527127218403,5.278312749103021,-26.41042201984344
3820.0,1.7880665628280636,15.267473270994982,-2.3497581227596203,32.29055062750848,-20.56389803581299,7.823869230526184
3840.0,-0.7356289410967574,8.243567835260013,5.620608169516422,-27.557726866136456,23.39882516333469,30.830953454424858
3860.0,0.4371415958907239,12.066583133358115,-2.216280772736604,16.430864971442297,-11.677888063889913,-5.134915171493327
3880.0,-1.489037645659549,6.730070439573893,-2.9152255641999094,-7.441821593448968,-5.48701142551527,-29.574444597159808
3900.0,1.7302195992888958,8.865298866616264,2.597036199101651,-4.899298306606411,17.624521481483217,-1.3553133595822064
3920.0,-0.8697219026670421,14.92398520383556,-1.2091667169183695,16.970847077322894,-23.154124909272465,29.60812711774489
3940.0,-1.821010412742069,6.263712698047635,2.4387232770536507,-28.45802885930453,15.9509152453607,3.0126741190158723
3960.0,4.387783076129711,12.408978453541817,-2.1469081168735737,31.28467035315328,1.9780564452331226,-29.251624211634656
3980.0,-6.2477726710665085,3.9468317311084316,-3.093952998991765,-39.575539521271665,-19.175952903043544,-6.035947075971756
4000.0,7.436629861306071,16.46941944909523,5.415480951868661,31.586476785648404,28.59617654846159,30.402164145774737
4020.0,-5.151104946977819,7.676646434172228,-1.6865800290969455,-24.08157919480606,-20.57318629344054,13.335000122150031
4040.0,1.6298585554389569,9.104493156118444,-2.017309339217991,12.518569467292012,6.460757095794214,-23.44185305350172
4060.0,1.991116416399162,8.48980925431838,1.2446001823710982,-0.5795949684962804,15.057004251519936,-19.5871340561973
4080.0,-4.514089252678661,10.133994775621932,-1.9189126938920111,-13.41377074589295,-23.254488972254787,23.674206939043163
4100.0,5.5053000686490945,15.084185621379262,4.103992964255343,22.3604085560734,18.549275756211948,20.513253600680503
4120.0,-4.475241979674016,3.4517714129644808,-1.9672755813713756,-34.49899922479293,-1.901837641185585,-18.80628446855405
4140.0,2.712689238853933,12.980765028742212,-3.384164638923526,34.95933922892398,-13.971611496624691,-21.31762287353668
4160.0,-1.2261932971465865,6.842823928634167,4.55318805714602,-33.491498947580666,23.363729753465204,19.682518856775186
4180.0,0.7270832747566234,15.88164909910306,-1.4256398488386983,25.794364012119313,-19.61418862631748,28.518820440744392
4200.0,-1.6034794672288706,6.196509486108998,-0.34805475237712047,-16.728575873381732,9.579350357346167,-14.445152883164189
4220.0,2.154602880408513,8.43964023988428,0.1845198039115558,8.208907170033406,13.880248294994168,-29.182660347072765
4240.0,-1.6775464227348167,11.83695202893269,-2.7834695535944265,6.665868642810143,-22.863683183929513,9.250848556720195
4260.0,0.3132548340390503,9.403113598306591,5.044277713452291,-20.35923432089749,22.155039765135417,30.501603555794524
4280.0,2.6437610396759794,12.977414478210399,-1.314960614086374,25.021275286354406,-5.5278713900719145,-1.9789142872098786
4300.0,-5.323718690541725,2.300756120222603,-3.2897008840724844,-30.525347285751824,-7.238041399021382,-29.954568941227876
4320.0,7.170936511907955,14.815940723737079,3.308040262877212,38.31751643005193,23.467509631583244,2.6206621070066025
4340.0,-6.7611217367884,7.826072540309917,-1.1852329619802682,-28.180267039588802,-20.75962113584444,26.927127837689252
4360.0,3.895597967754359,13.090429279435448,1.8524224154445739,24.442397558159968,9.002742217281927,1.477611571244805
4380.0,-0.3520740647025391,5.7351835860014155,-0.8709755544282161,-12.013983029050967,9.47248246648668,-30.150941896378853
4400.0,-2.8062863059551746,9.37154816561502,-3.453398584841398,-3.665675692314564,-22.226090861924106,-10.684337911112138
4420.0,4.478876585650947,14.394806750396677,5.501208581473395,16.120127757435093,23.368311222035242,24.261552981815186
4440.0,-4.421135651107709,7.231024052788322,-1.0031721749876357,-20.253202016825178,-14.12097941058903,8.882525559707162
4460.0,3.6472109072921945,11.961149243129192,-2.5407843474643403,35.227142532569786,-5.2116734902211626,-23.72725195781939
4480.0,-1.810163483863267,3.2419886925564243,2.079363228279573,-33.461999506133964,18.556496011943516,-17.859943061292142
4500.0,1.209099038773384,16.663530185880486,-1.5235662462503876,32.09624231829819,-22.74778192518951,27.44544851476175
4520.0,-1.156730281418683,7.359712626842394,3.4487194702814445,-26.146329581327166,15.581325002421984,21.661961964088746
4540.0,2.707089015696668,10.325094458225522,-0.691541060681067,14.133488315878541,3.336164905332603,-20.57785583679516
4560.0,-2.803969508705659,7.1443116475711435,-4.496985226194997,0.824681299740166,-22.01183690396543,-21.771540591563003
4580.0,2.07164559268666,10.62574203247999,4.878338353365066,-10.34389624500569,25.349627676313624,21.79005467660276
4600.0,0.6201548711918409,14.982831236981978,-0.7276975457958009,19.227806475065343,-12.801492328432555,25.612205597941596
4620.0,-3.715035032818783,4.346367935381194,-1.4269906595758275,-26.490101509991497,0.6074867154492161,-13.819134993291879
4640.0,6.598033717619129,12.430019168601495,0.22985873719100536,34.59839288234785,18.04759028122672,-22.996361004132964
4660.0,-7.138303831596841,5.7565128654912705,-2.606418387605081,-33.51626047776567,-23.66744932498635,11.889997617626861
4680.0,5.8474538483848475,16.035073810583604,4.467987478224434,34.19349444870872,19.490896235875272,29.592899801117515
4700.0,-2.808624692487558,5.7999718055521186,-0.8782991488655036,-22.943279716272066,2.6522580725486167,-7.693934521679522
4720.0,-0.6846678310172822,8.981600075826904,-4.32947141639854,8.051013874039967,-15.57580598918771,-30.318098759416518
4740.0,3.3526365492954926,10.489672274941341,3.8027107539468905,0.9770806076366323,23.27934776342114,4.17797749890581
4760.0,-4.551199007682866,10.214559304289994,-1.1757269749726784,-15.060826092881575,-18.308080210145743,31.286801575074623
4780.0,4.1089525571195145,13.377520941515327,0.7018857019633739,26.109372724914433,3.9433579567638923,3.515758596023458
4800.0,-2.2719204585732395,2.458755757807186,0.27803398649119077,-31.894186532791327,13.806977762129769,-28.226032166708734
4820.0,1.8610740206040042,14.640109158108919,-3.9903291283025526,36.45460814580818,-22.578521202438775,-9.01153437348676
4840.0,-1.3273142137462757,7.654770959151344,4.49055753844185,-31.243345948285977,20.309389219186297,27.389379089700505
4860.0,2.5394830123656966,14.371861274453511,0.04787312462817167,23.943767075772154,-6.71556172820099,10.167047642889807
4880.0,-3.364235701020436,5.01792406940301,-3.3725477432323148,-16.934141212512507,-13.4099925391533,-25.69088464205889
4900.0,3.456119574711405,9.132278276387014,2.417563763571119,1.3568149093892585,25.07757168633126,-12.001497921142684
4920.0,-1.7853254777111953,13.49113875870327,-1.18065728202318,11.581631236655667,-23.250491491510036,22.315384408507953
4940.0,-1.7751218264505395,8.366327821812225,2.185970788771897,-24.068244032097937,7.088394336405514,19.672945325647614
4960.0,5.447667201285515,12.171540644599428,-0.10476506628250128,28.54238527553555,13.939419741797888,-23.883841048817125
4980.0,-6.82380539583892,3.116032654498259,-4.690327516821206,-34.33916941538932,-25.239556958760065,-21.348168877314894
5000.0,7.190211269508752,16.016808126464998,4.952963387509368,33.9963575604879,25.446222732558915,23.426397379195016
5020.0,-5.114631036275564,7.004412655850691,0.057580667369780944,-30.78334608442073,-10.934976029179271,21.40914935546916
5040.0,1.584954799843171,11.386294919734869,-2.210840975210579,18.284149116875614,-11.004090049393096,-16.625711320717297
5060.0,1.3092484828516127,6.43686752539628,1.3840127078334115,-7.453381987240545,26.593944073609826,-24.94462778656613
5080.0,-3.426598052229694,10.492678465697587,-2.3524056972077783,-5.924364000488675,-25.839331043217385,14.212681511560898
5100.0,3.5105701252066113,14.424025983194166,4.0331487602598255,18.20729388080196,10.258349324723534,28.277215204167128
5120.0,-2.676109406176827,5.233497927150482,0.280254694650701,-22.252255954626154,8.787641646479969,-7.791321722872509
5140.0,1.726469949940438,11.976840574868097,-5.090282151788575,30.411527496971594,-18.03907503064706,-26.18884578127843
5160.0,-1.6682370813303287,5.246126468819233,3.812770104645021,-33.71643334404517,23.852201278748453,6.360507924401381
5180.0,2.298026924641514,16.890275105430433,-0.13750855883035876,30.490020713001734,-15.956980932432828,28.244167273516638
5200.0,-3.3623280323985125,6.304559259419425,-0.6334513050557242,-23.10027371866654,-4.196633541328639,-0.5438854967977238
5220.0,4.194037803647922,9.450316576810051,1.2426924973536466,13.056432565716456,16.49619454954099,-29.346292807058468
5240.0,-3.3976774997028096,9.376797409813175,-3.9947846843336134,-2.0062517159834243,-25.75126457776626,-0.49896254543011187
5260.0,0.6042477104603355,11.015109599520494,4.0916525678243785,-9.175652612532652,18.00957483607551,30.889589676002515
5280.0,2.788788902925588,13.419506436494562,0.8623650218379985,26.32411284873153,-1.8500890720024072,8.657030095271873
5300.0,-6.013915995339047,3.382639666403005,-4.288120428475895,-30.54652949089836,-17.22156804227709,-31.512550413687073
5320.0,7.308001628287581,14.16609045205498,2.769138541278735,35.98841443794123,25.79042533210723,-12.395080784005739
5340.0,-6.214844195525804,7.192231053002139,-1.19797090935801,-33.367547439832705,-17.113449282680392,26.306614743286673
5360.0,3.7974342247378567,15.121927262907324,1.4642407323957736,29.304122685282373,6.2146912001868575,14.74794303405512
5380.0,-0.6733052002434551,5.108401872065675,0.8014007609036913,-18.779579205550153,14.509448630862943,-23.41008443540039
5400.0,-1.7551728945629868,9.434204863389851,-4.827437600637618,9.79467373476515,-25.202521237873178,-22.258404512584
5420.0,3.360642745109701,12.544789398878256,4.143226116838549,6.671615648210142,17.08507691863189,23.72435513778826
5440.0,-2.302411102895911,8.895423466685896,1.0792728253357737,-14.470185243209404,-2.856009597160024,23.8321440706898
5460.0,1.8541283848558343,12.329677222729375,-3.1945852253904548,28.30539842575799,-13.739849140128884,-14.349495803266791
5480.0,-1.4276761765314012,2.811511230339059,1.8390323198257366,-36.0934224948704,26.503351374966115,-24.66484504236895
5500.0,2.2737597225309645,15.763649908857468,-2.3129354804192874,35.96034364495105,-23.4288800167829,14.655268302450201
5520.0,-3.5347713957170876,7.437173055698555,2.6910036677144253,-30.89019597863058,5.4308641068026535,21.163536719369908
5540.0,4.697516463509065,12.10943998609107,0.7859814946105983,29.768331559130022,14.62685038429093,-9.59168970069732
5560.0,-4.751996509047908,5.448722908307998,-5.4028338099877935,-16.094686350487216,-22.9179243767165,-32.99418050801165
5580.0,2.717899129529858,10.356867712721694,3.58200457059261,1.3889093866204845,19.646318881689016,5.5428045681668126
5600.0,0.6058436989743787,14.245009892223937,0.8810414422700139,9.689885651228819,-6.699266399253439,26.80603636355287
5620.0,-4.072236751923778,6.4165860535673005,-1.8128804164926076,-22.155890926023382,-10.01580089522744,-1.9730953017876482
5640.0,6.783114526381927,11.780374918564267,0.940387193043686,31.813762150412607,22.372173501036535,-34.24851683814452
5660.0,-6.921702684645334,4.5453315006380945,-3.6118101622325307,-33.888560061770846,-20.669693190404665,-3.5950626018434138
5680.0,5.479643846776868,17.06917462811307,3.3644731461015134,31.606463287029904,9.136873130758516,30.28107557914524
5700.0,-2.658336581369366,6.4539947762844525,1.5071635148297975,-28.58635890853404,10.884763835547217,5.5002804576671425
5720.0,-0.43939375403129377,10.30829741301487,-4.770645418801757,18.528811819026657,-23.876252754070098,-30.02243054902073
5740.0,1.5892016228918582,7.919828191573832,2.633169325566663,-8.496610363537716,25.53535584800935,-8.7253358935919
5760.0,-2.0069065954916714,11.408621561161976,0.2934397823748074,-7.56313390455278,-11.254000989136145,25.204078182483354
5780.0,1.6200268163455809,13.344263924946228,0.023718287734086574,19.287742746716866,-7.020493695010002,12.455852471082924
5800.0,-1.221532830937168,3.7625560098501993,1.4199658886469073,-25.367365134877474,18.977377020396343,-26.558343076096346
5820.0,1.3395173265336988,12.943259338282129,-4.957173481920962,37.462044893100995,-26.51303452635074,-21.13850372235598
5840.0,-2.441456976385856,6.64788547542344,3.0116018009842636,-30.863150984404495,16.77478894072604,21.823369411938714
5860.0,4.378584564246351,16.307804018728394,1.5808793642081285,29.281259354321378,4.002144597443308,24.497644719825207
5880.0,-5.554670927811609,4.729004964891648,-4.034250197650504,-22.050004683174606,-21.542492911924384,-19.03689130699128
5900.0,4.448778237128532,9.290178675551305,1.8652882682101226,17.213378796617963,23.64351220149798,-26.251982675556434
5920.0,-2.034818723869996,11.282767150017149,-1.2395563196461818,-2.596823791488336,-20.015862417611924,16.111882649899975
5940.0,-1.8407809893036557,10.442413490351612,1.5220018879377035,-11.040211103371155,-0.5707914759660173,24.46217172235988
5960.0,5.12111308691798,11.952750970730179,1.7861310238153127,22.691532456996537,21.977737793918763,-8.081060957719902
5980.0,-7.464796431796653,2.731541515725386,-5.298516957329525,-30.29443538568438,-28.455919699839747,-24.049378711023916
6000.0,6.648901164832832,15.379351221955092,2.9273966764561217,30.783320425820538,20.71013631777473,7.986063776941558
6020.0,-4.694478329445816,7.810621365667157,1.540776247934777,-32.01453323988798,-2.5332815391592858,26.940078015730457
6040.0,1.322776802078998,13.562698554350362,-2.3649509375614026,28.119777305613972,-17.349821144351495,-4.164930893250822
6060.0,1.0842171983217948,4.833791628400041,1.4244464061607627,-19.647681647450515,29.305266196816838,-26.467732410224343
6080.0,-1.6831661674154177,10.959586074666337,-2.7108069281670844,9.158415170707741,-20.90610559527392,1.5700788481122738
6100.0,1.3666488825703977,13.669311522452176,2.6639751402835095,9.603840386884517,1.6458980379074666,30.115161630055898
6120.0,-0.7105782731618875,7.481867289671489,2.240934374211474,-21.487562833461755,16.368895730243235,6.783613109558274
6140.0,0.7610705750960978,11.31260680333514,-5.4740956422004485,27.662746440661742,-23.998456610985336,-30.82449335591466
6160.0,-1.9350153792202507,4.120261989725405,2.382219518740223,-33.83241021559546,16.756414892437853,-6.643810043653232
6180.0,4.144449257524438,17.22497055752941,1.214813270121278,35.478921961877774,-7.831662865872554,28.09919834725018
6200.0,-5.834886511812683,6.6349456444051444,-1.0541424926926255,-30.859057393645493,-9.792583159608174,13.556285823011933
6220.0,5.662529518962212,10.88112770771511,2.0257516762538157,24.61196695157057,20.63817859872602,-22.71471163793059
6240.0,-4.061099231195383,6.645127833782545,-4.106767379947044,-8.152217370748199,-27.45206316931126,-16.615848250476667
6260.0,0.689098086464597,11.925871351578802,2.667115283214445,-1.6183775359508743,6.747839932623502,22.736704200354275
6280.0,2.8104960846335247,13.532951115573441,2.728037382128361,11.130473364992326,9.313513692499262,17.940357638780412
6300.0,-5.74355096003677,4.649575179228136,-4.666989921569737,-25.086146571873666,-24.080241325788876,-21.45041165496236
6320.0,6.986134687248254,12.163014754321814,1.5253332348309716,30.520303799463296,19.362716515213585,-24.941499072881978
6340.0,-5.7293433324572955,6.2589149594816655,0.028080135385858573,-30.752121382516567,-12.430321484510443,19.693644596084543
6360.0,3.1887759150030925,16.84489012911555,0.23773332270613856,31.125058597215492,-10.739162505118363,25.648888793086556
6380.0,-0.9321728585397109,4.636121001463087,1.9835321964651516,-25.44690703657067,22.06856448790663,-13.090988201883349
6400.0,-0.5457658521597422,10.131121057370246,-5.470731221062645,22.511605855075295,-24.665319160481836,-29.35014445396927
6420.0,0.6822148845095407,9.909958677304568,2.382039338388398,-6.342180949004976,9.215650002071628,6.927439635264565
6440.0,-0.17796641276410663,11.189365112953984,3.2110062175640097,-6.459598415283375,5.903419090998424,28.90477385279051
6460.0,0.36236481587142944,12.326803401365886,-2.946336223287703,23.310782854219813,-21.96293601756791,-2.663183961739663
6480.0,-0.8908797311772441,3.27204730488505,1.5272570967968955,-30.166888913437884,23.155769616254045,-28.450738699749966
6500.0,2.6739959804606257,14.9190819555503,-1.893745040025482,32.0785584006856,-13.757072483988173,2.1221670664909
6520.0,-5.012530067432418,7.531857162742518,1.511019888200769,-33.79131454702239,-1.446061250618472,27.02295421074675
6540.0,6.53312541886322,14.615986724245923,3.1617835060295483,31.225413082973226,20.943890751496276,0.7772578217867996
6560.0,-6.148817585023524,4.101254741986961,-5.075287635454598,-22.014582041529206,-20.99624048729323,-29.363441191139522
6580.0,3.4571714800786233,10.677470017981987,1.9636382102036003,10.279840345119771,18.214122104768315,-9.346563990929726
6600.0,0.2389286727039709,12.639672926926036,1.9815660290915718,0.5146782899856912,0.9586200508062701,30.920518865088578
6620.0,-4.2485172098540005,9.036244528999553,-1.7500198150401185,-9.899236413111636,-17.372788418192165,9.573568792261723
6640.0,6.171218246045789,11.297698736190851,1.7403498585431438,28.54330792287442,22.813290794294424,-25.68933351228545
6660.0,-5.991373648875984,3.6403471471016604,-3.5065096005272123,-35.50859241829763,-17.739482440038834,-17.391544491000175
6680.0,4.453908599659026,16.870784563455594,1.4583024394991755,33.089210185466925,0.3564364229425859,20.021002870967642
6700.0,-2.7311726028177805,6.723107599960449,3.5334880536900557,-32.5991486711295,18.031804898796324,16.700897808720153
6720.0,0.427325432006978,11.565496572343623,-4.751523487099785,27.708413445525668,-24.836434274244397,-21.498028747808128
6740.0,-0.009388013961890485,5.616280525327944,1.1018690061442458,-16.893015654401697,18.16871683382466,-22.660720068951566
6760.0,0.0666062179885626,11.717026824881932,0.6554787376402104,2.623009768591465,-2.6837408197696724,16.349578282308666
6780.0,-0.506942941665343,13.02657468100975,-0.5501940477122266,14.112319271168925,-15.084150604946265,21.92187437990499
6800.0,0.19311898765590738,5.597698423590444,2.608578648580265,-22.897255522441498,22.70004864513873,-16.621357442651707
6820.0,1.1067049697679365,11.611869459436619,-4.5862992822777695,27.444593129151293,-22.46127609617941,-26.37988384446066
6840.0,-3.7410695281163475,5.648512741476893,1.6531439404293506,-36.41115221929032,4.726715189400151,9.825764301482396
6860.0,6.072156016360103,16.957413244241064,3.7614716796257937,32.2498915556286,14.637976255708363,27.95176093910659
6880.0,-6.699341687116044,4.859937731785672,-3.9315379749375463,-29.901675217335896,-21.238427516578025,-6.103138931891425
6900.0,5.614382715044035,10.67786773485647,1.1768586104550283,20.283397540455983,22.051785915482256,-32.54148934809115
6920.0,-2.3550215117673,8.650960291803068,-0.8580330000194926,-9.207565533736402,-9.379000178867535,-0.18927655881420824
6940.0,-1.5696152834745865,12.056955521935299,0.4735498481773107,-2.1167201645017384,-13.2037747626423,29.324149688489786
6960.0,4.426100950043936,12.388916667074856,3.369807101614305,14.809557718049572,22.716000610263116,-0.9670580453009616
6980.0,-6.418970572596964,3.694072529282239,-5.247013504901311,-24.100880685117524,-21.362697788592627,-27.60365317066949
7000.0,5.418623055103986,13.842171802624254,0.9160631129101304,27.401562900062768,8.894694591399253,-4.816164322576547
7020.0,-3.320967168894281,7.182351615748763,3.364363447406874,-38.25234026663388,7.630925753974077,26.808331553564898
7040.0,1.509649836581891,15.502469734315568,-2.308155575662925,33.47794515251668,-21.810552871963615,10.556666944770281
7060.0,-0.5625361554334786,4.115067820351676,1.5243426258154797,-25.492939352567856,25.713030294353253,-27.57056607510867
7080.0,0.7269004517985572,10.604556777478733,-2.5219074969407416,16.196901528457193,-13.791122346809138,-9.02715630098199
7100.0,-1.0191936469453347,11.702839910030526,0.6878196060033227,-0.4145263292297816,-5.207800407593373,26.637837474581186
7120.0,1.2844759748039951,9.611381164315453,4.225405997047267,-14.920210336184153,19.72160425993923,18.734884573679025
7140.0,-0.20851785334706466,11.128836895548966,-5.234691051878052,17.122476062793172,-26.591374509491313,-18.674162084715235
7160.0,-2.229028259422686,3.3195050848886707,0.6905870743695804,-32.04187718972011,11.20102651698645,-19.750843531415267
7180.0,4.777071586460541,16.24194928500448,2.082395707201513,33.8080376670868,4.9410174749882625,20.994900075319205
7200.0,-6.481192550715107,7.062022965287417,-1.3153041673488606,-32.757776448535196,-21.128452238365053,22.176709170183234
7220.0,6.751378273485296,12.827949292875521,2.409079046204511,26.608477059258618,23.7175632157752,-16.289908782124378
7240.0,-5.029460416812692,4.9439670175020245,-3.9830905135287313,-17.92315464135889,-15.00094858714909,-26.62824078480032
7260.0,1.1328457634736118,11.974249183751699,0.6069012343375595,6.754744831585822,-1.7487834860185612,12.19799207039396
7280.0,2.721766954691849,12.40931743923611,4.518422340219117,4.723323210954916,18.431352699713713,29.113180940432642
7300.0,-5.432320383463313,6.777201966398093,-4.012739481227353,-17.1472522311222,-20.568990867512323,-9.819383818079348
7320.0,5.453842694663839,10.768269654597148,0.4716996984081332,29.493616547219638,17.71489673687154,-27.552302773515905
7340.0,-4.411058163691709,5.195304133671218,0.33426035617825933,-32.12396289084064,-1.098423189218618,4.587198553926539
7360.0,2.297942329832869,16.827729858331622,-0.23105863141010685,35.20164990496762,-13.840113322900809,29.579592315462744
7380.0,-1.232554451343053,5.275587859969097,3.289389828084016,-30.285265404553137,23.945735022539655,1.2317298547226105
7400.0,0.5383375926423792,10.98437144874145,-4.584693669977453,25.673669145983045,-19.717674139318802,-35.46982662002775
7420.0,-1.3888163025093927,7.4921230097241445,0.177834724278991,-14.42594651676391,3.3928054998056063,-3.075425534137544
7440.0,2.252933007396484,12.579495963928375,4.226951678960597,-0.9938600455517821,16.1576457331602,32.056290088006165
7460.0,-1.8154227398866185,12.140811260801224,-2.988943679723943,10.884414984880893,-21.797574502656357,8.391504211788504
7480.0,0.16370310853561942,4.179057894838737,1.0838214978125875,-22.455479177768265,22.94858659294505,-26.848023708929393
7500.0,3.4631111681150504,12.853183925735497,-1.0877615864887393,32.34416484397991,-1.444011272640183,-10.296775586021022
7520.0,-6.284905409512345,6.882020058950585,-0.27349334312598417,-35.317738491753374,-14.285892979944284,28.66594064110105
7540.0,7.411241812995733,16.068908796416036,4.375717744678941,32.099977636936984,22.346206511401874,14.254328782670363
7560.0,-6.254142280258568,3.7835241875279824,-4.628040909565452,-27.186837396757582,-21.695976290059107,-23.54173950136875
7580.0,3.244903903621813,11.089504895901865,-0.6644456856150811,17.278028139606214,4.7627064906227385,-23.502636245505347
7600.0,0.45499398901156307,10.105913681127703,3.0684735100921885,-7.547639954922811,14.74290868552317,17.266434141600662
7620.0,-3.709081884280548,11.326178546724275,-1.9117681014173011,-6.345704403546456,-21.17377791016414,24.795745287329893
7640.0,5.249925947965253,10.633854554164483,1.9305270235178542,15.69474876814131,19.54067455016378,-17.6744801783244
7660.0,-4.957890405743081,3.8231800525699033,-3.024998864569752,-28.643370510800647,-10.688418069131142,-23.895819267440924
7680.0,3.342948153251193,15.788023046924968,-0.08152151368671279,33.057745782604975,-12.887455291493229,17.86268188525746
7700.0,-1.921347832214918,7.141594449928855,4.635661863311523,-35.133540736683614,23.91267973231149,31.57610882199691
7720.0,1.3850099921763201,13.034137489215128,-4.095386557622302,31.200418678904835,-23.893763189379346,-7.571411377511746
7740.0,-1.9946628235554387,3.9650860122976757,-0.2900698935207954,-25.37273100219879,11.630679025509297,-28.985537463399226
7760.0,2.408915136466882,12.028431544726029,0.9347731439634807,12.862111274081617,5.288374795921606,7.595177070781858
7780.0,-2.70413206331738,12.346320335138362,-0.9058563767324583,0.33256422983892064,-23.523465930591776,30.164569695398722
7800.0,1.576473942137207,8.109679724755045,3.3249523689799125,-9.823221589503516,27.795199538682322,-0.7575453853286302
7820.0,1.2094634355121137,10.730831312383641,-3.5984554065634975,21.761687676567174,-13.854684143751959,-30.391568268043702
7840.0,-4.564241279089997,5.026618646073539,-1.121927164784539,-31.699144826563444,-2.1553869563561068,-3.2694585677412356
7860.0,7.188182173550438,17.408295490693696,4.775152773423958,32.0302590975612,19.2440050483384,28.238451889405
7880.0,-7.2477850126215095,5.594142837125199,-3.117568750286399,-33.64397168077884,-23.02168995194472,10.514008890465927
7900.0,5.526905080178946,11.462321828274511,0.17713006399861195,28.87507470961141,12.42782670302378,-29.864781706236197
7920.0,-1.9492778784933202,6.2120487276805365,-0.532947663961207,-18.116597481067032,1.4982573676718443,-10.70869092187798
7940.0,-1.429925974710962,12.874373981717634,-1.1507652011797955,5.612344647341686,-20.72379143380331,30.801870058163175
7960.0,3.906511825466528,12.02677423745213,4.672910484180425,3.5454498501255047,24.495347032143023,15.676374426096288
7980.0,-4.24545958398637,5.162134127580151,-3.9410047087821205,-16.893091597865862,-17.185833153633485,-25.93941440492153
8000.0,3.5006817512972446,12.601674971024837,-1.1841760837291062,27.648003542213846,-3.6912192747265133,-21.01401797540242
8020.0,-2.1936186568233595,7.058831421041522,3.9582339299471148,-30.157853609776918,19.04632882339726,20.04186153170904
8040.0,1.3455140388774112,16.241700980024095,-2.0957305661356074,35.836254384373845,-24.49103276986657,25.72398609975203
8060.0,-1.9869289286072507,4.156745931641389,1.6331123652962722,-32.87871022107852,18.46874623003161,-16.367140859486373
8080.0,2.758243725819022,10.945928675409226,-2.1161545645971453,21.977268772287417,-0.6292353830078237,-25.816365573294494
8100.0,-3.2228913938350177,9.195873383302583,-1.1365220650261068,-10.049351128678746,-15.088890467342058,17.04991450543595
8120.0,2.957059951588901,12.161309162344198,5.1733577793232755,-1.058025573179825,27.285617473299798,25.88078727575983
8140.0,-0.9554163631166974,10.680530920153982,-3.4422822008495633,15.938831751943614,-23.568755094805194,-10.221721623634313
8160.0,-2.517490994947722,4.376717417382254,-1.336954027702782,-26.106345409567023,2.208106306485862,-32.77376217294762
8180.0,5.4948795962881105,14.998225347391665,2.2626723284479566,31.951718727832073,15.321355960522254,5.604026100184592
8200.0,-7.536060050712633,7.504198804076592,-1.5465726175176315,-32.47418324071895,-25.972647590050116,31.508585674832194
8220.0,7.1249297426808935,14.209252666695914,2.9237704730970844,33.350868558807555,21.991852922171443,-0.44684253029040155
8240.0,-4.19264775574428,3.4701276623687423,-3.073441642617745,-29.59562973455958,-6.937175333081586,-33.000674139182735
8260.0,1.2561254837456053,12.084744149192655,-1.6798528238048807,19.11205162094783,-13.071674804148616,-1.9238975871773463
8280.0,1.855000783865409,11.317098361678491,5.4134477296461,-2.3297244093364697,20.923189221107634,32.76037100285198
8300.0,-3.7389233725193622,9.300638337648834,-2.7759870904870296,-6.378312575277864,-21.278710956006634,4.979757994235275
8320.0,3.778227432689011,10.20793251631509,-0.9040871088712183,20.94427772256926,12.272680830961871,-29.413743703497747
8340.0,-2.823245314969858,5.310120105400775,0.5724351222252374,-27.220041447744695,12.220232803154396,-10.889326390447978
8360.0,1.6677507475446658,17.198466970089353,-1.3737027940487139,37.36307411578945,-23.49323442447866,30.099554645891015
8380.0,-1.5807957493512272,6.291992861849934,4.145777728891925,-32.29869717472313,22.964208759048724,12.254582436886475
8400.0,2.5747215396746297,12.25510587795943,-3.3968556265761825,31.339397440550247,-11.192404390159536,-28.165945098939623
8420.0,-3.5013300463437225,5.164721559171968,-1.966896796733463,-24.798894489933122,-4.273948052174948,-17.736941519592158
8440.0,3.535143757947117,13.21631186944085,4.673460153746777,10.293105790066653,18.62186094454712,21.05039624616821
8460.0,-2.7692227750539917,11.822609397765756,-2.0918697188895536,2.6284651020953422,-26.75499650596223,18.117716879094285
8480.0,-0.436932399538286,5.941009465739449,0.8712206440839427,-11.758882043051136,12.366115008447753,-19.870677786086496
8500.0,3.2816886622645254,11.220243507050405,-0.9989734173978594,23.752021845393788,7.192773880165438,-24.52159678657121
8520.0,-6.696984553284163,6.770943106605909,-1.5356784116906077,-30.445943923685146,-19.202613078044642,16.40781265023978
8540.0,7.125305164435942,16.955578227871115,5.2238884059117,35.37277491830704,24.82337545662969,27.343423740568298
8560.0,-6.325285745628517,3.904882838805263,-2.874284794325982,-33.767133753099564,-13.11183525167309,-8.778819327875937
8580.0,3.0988252955085054,11.052286997622685,-2.172326510280018,25.633708047075718,-1.3168025745839227,-30.964434408454633
8600.0,0.2585859513183423,7.9235829979326535,3.166369686965571,-17.436414690085343,18.927821340700454,6.819213879207854
8620.0,-2.641509871745732,12.81196840921362,-1.1818956348727792,3.654414592331729,-28.343755863997856,26.868010200242782
8640.0,2.779819816169612,10.456073941093695,2.19213092581737,7.330964689418238,17.876079723923826,-7.5953468248578115
8660.0,-2.5946372189519864,5.024181634799259,-2.1219106879473606,-18.94085268965557,1.6732922535711015,-29.13137274197748
8680.0,2.0232824580432958,13.900035540438328,-2.1872067223237095,28.943741668931395,-18.74358179929815,1.3785598537459371
8700.0,-1.1471456136860911,7.733209499901339,5.860105502468895,-36.19307024943905,29.670272799241378,28.357019888577877
8720.0,2.4659367844075555,14.975799875512052,-2.2981830701543307,33.384937436095164,-19.550050252183475,3.038344059259927
8740.0,-3.6426414847528994,2.913032191130788,-1.5979597742335527,-30.369098161706734,4.051123884194641,-29.882166141717224
8760.0,4.522788820483048,12.312842610693302,1.6801663405047071,21.30981433131357,12.985494813937883,-10.058178646153872
8780.0,-4.552529621074157,10.54878924956788,-1.844640899808486,-10.797112318324434,-22.946355759057884,29.62742696943436
8800.0,2.0874097485888696,10.093242190598087,3.8253039663342,-3.4806033696706873,23.17403465199338,12.764022468448019
8820.0,1.3425735584736473,9.936007888934865,-2.336495204118652,16.179670167657516,-3.4821951951851924,-26.106423593573055
8840.0,-4.659680710366381,4.4450885545609005,-3.0675669083354964,-27.902423464682435,-13.015469553832396,-16.056545589766234
8860.0,6.992692649292475,16.69694929495219,4.893931819877354,31.980900351386435,24.7442075576456,26.501677675851802
8880.0,-7.175685635908352,6.624191431906946,-1.513000684787227,-36.49675747083169,-24.329371821493453,19.723940050926327
8900.0,5.332506218888247,12.797716492415699,-0.496366718280164,30.43193567809688,6.453597953891226,-22.63496413593795
8920.0,-2.0046839455575385,4.3391405029719,0.10984729169311862,-27.57673508191414,13.13003312802336,-23.269149309926213
8940.0,-0.3447835181421121,13.258799085037792,-2.1232576495065034,17.588460103642014,-25.620455797119874,17.472364302075086
8960.0,2.5375005046536434,11.115168907026606,4.834338552855222,-4.097185768764932,21.525485402576873,25.896415621399395
8980.0,-2.364952668032534,7.534914572026991,-2.1060476703255837,-8.86560978205887,-11.632451674855224,-14.492622130620376
9000.0,1.6875184119464581,10.666617164934914,-3.7354888236015573,16.746329267163368,-7.267725373802263,-25.391620229200463
9020.0,-1.2711799178533096,6.496713281044301,4.094146451567106,-30.283492048123726,21.10255164290953,10.07521068549482
9040.0,1.6859589399078867,16.948454965507462,-1.4368103791163385,32.95435654671031,-21.640558530467334,30.108563450646983
9060.0,-3.1401546387230086,4.922478873880831,1.2038731619044198,-37.07073426919974,11.204533366119165,-6.3340980298283895
9080.0,4.552830390896109,11.327486085471064,-0.9688804524288835,28.59052494854639,5.994240413058216,-27.727870215470624
9100.0,-5.22415755644065,6.9658983108419745,-2.8576748716569718,-19.39105448121581,-22.65078333663375,-1.2504218873883235
9120.0,4.091906898542155,13.666748743448188,5.489486287969223,7.808555602592715,22.77181006270091,32.343652726275245
9140.0,-1.2526193215202144,10.59846524730716,-1.8991234240596224,5.158710098003718,-12.737872735787022,-1.4898580246171091
9160.0,-2.7411455778389024,4.995538976442047,-2.8837571783982003,-16.10414649663757,-3.9283361713312095,-24.720899156484318
9180.0,6.003629729997556,12.771100380078925,2.0812843823142013,25.767292281862268,19.127729091566202,-9.61515933229495
9200.0,-7.247489315258895,7.563362879475147,-1.4351123392829377,-33.03222941398618,-27.150842251319975,25.316411045457833
9220.0,6.054458739843629,15.448554118910609,2.917072601577496,35.62369767046594,15.829378130376455,10.751043539641904
9240.0,-3.7794950027310694,2.5445294140948382,-1.8744704690167768,-31.208437780130858,1.572416286807369,-26.212202341602485
9260.0,1.0323449056947418,12.422135257471476,-3.2654221949824898,23.597503772560042,-18.479625209037803,-15.499835570420485
9280.0,0.9931600738174465,9.796250013693301,5.585495440649776,-13.641942032571208,24.56472642330208,23.633514600998137
9300.0,-1.5356672169334933,11.872133896500655,-1.1538545192489875,4.303506904842392,-18.40007163821509,18.30423861223907
9320.0,1.5787979722824215,9.696635457295637,-1.2474672592496496,12.510466632204434,1.6389774595603583,-19.21856810698449
9340.0,-0.932135245728348,4.927588020281877,1.0201414347841151,-20.275700248545295,16.91871125059209,-23.604076998547168
9360.0,1.20293148107122,15.71919563644527,-2.3775884281816606,31.580299886443505,-26.086296431213263,20.89157635122579
9380.0,-2.3929167237252504,7.159737272374397,4.292186400999108,-33.33248456172445,17.124765033146804,26.76965273143138
9400.0,4.044345905550246,13.246514589827733,-1.200897395075224,34.384437793152415,-1.9641766702694414,-13.55101457866382
9420.0,-5.737247401624241,3.1174344112319043,-3.940945391871323,-27.06550965462159,-14.954644901782713,-26.828284750087793
9440.0,5.298766406523995,13.278082131359827,4.389402584187513,21.17132412457057,25.972867058361533,7.611667125990046
9460.0,-3.4765673676607296,11.1467112575742,-0.9891376078948408,-5.701929870636111,-19.60314998669696,30.163611561167667
9480.0,0.18735726625277235,8.831279735832648,0.36670508495956067,-7.1276090696692815,3.462453689738976,-6.084395159724671
9500.0,3.7831158545374954,9.377810983920881,-0.09231491579648662,14.099268815053511,15.440599318081269,-28.343441208410233
9520.0,-6.0582391039809345,5.98630591989168,-3.126483854954312,-26.500049847227093,-25.376481393449986,5.971938316816709
9540.0,7.017983919051209,17.065395268144744,5.059714468867512,32.64409865130727,20.57843186254209,33.33748463970151
9560.0,-5.090400810500245,5.266734707204716,-1.2064155878088,-36.10369712970092,-6.227269748456678,3.8127070469242
9580.0,2.6072308848829038,11.885219618838894,-3.2316770395893166,32.348193181720035,-10.217934655465196,-29.934864932232863
9600.0,-0.6673519387070317,5.862750275411065,2.961131028257562,-23.13077432597009,24.203374314600428,-6.263868866168159
9620.0,-1.0600039286777752,14.231737687990085,-1.3048003785987485,12.764584945359191,-20.509412014774558,34.45020571920144
9640.0,1.3152994845655062,10.504463684771846,2.076090418765829,-0.2909337837290309,13.038017793481886,11.82424940174263
9660.0,-0.4239870940694017,6.024357959437773,-0.4862833468943703,-13.709539710797092,8.77035425936617,-30.285535339877974
9680.0,0.29833370061173137,11.814393773505632,-4.41993135178967,21.619046615494003,-22.505321809292344,-16.97357411674007
9700.0,-0.9305940584462429,7.168454571452169,5.031945069930864,-27.98976735413295,23.249723844610223,28.426131609170525
9720.0,2.719868433620339,16.218755246291533,-0.23350854791196632,33.94981162727792,-12.750654933366787,18.420034204320686
9740.0,-5.037571346940068,2.993122839613214,-2.5218262501571407,-36.387293002564,-6.932566452704841,-22.94761242506127
9760.0,6.656068814910106,12.251213249956407,1.6941367219940866,27.48847245099951,21.627291482345687,-20.076825183966967
9780.0,-5.2246687600392345,8.974019437185223,-2.1434958610392565,-15.276221482094137,-24.734496521784724,19.328631814674026
9800.0,2.607355527019991,13.327358715402411,3.5342268561119874,5.6795623321589,11.42786566136315,28.661128715388877
9820.0,1.170621295502103,9.243260390590008,-0.4240560884785279,8.185249409892084,6.142753717803691,-17.805382039131004
9840.0,-4.800847175838352,4.732413913350657,-4.818625179885397,-18.269485589167658,-21.020023369495235,-24.667092369502377
9860.0,6.661432476576397,14.875171783210861,4.557558237564196,25.396459161919548,26.567579656336807,10.838916966751874
9880.0,-6.091327055441173,7.2442190309686465,-0.32586274815655036,-34.52947919457576,-19.141382911229385,30.675631018196288
9900.0,4.346121961942886,14.328695739426648,-0.8411390319701213,34.9959997264832,-2.2347724378336955,-6.558470102027554
9920.0,-1.6332979296875028,3.210035692879821,0.6951801129312835,-33.43573433006718,19.856131584453415,-24.700284886635608
9940.0,0.1888023507255453,13.791205854902593,-3.147762988026264,23.958504714832067,-25.3756236222978,5.990012737842584
9960.0,0.671102090581745,10.487158028187043,4.706360572457207,-15.04163024197656,19.130534983313417,28.583801200119396
9980.0,0.06394096285572605,9.32021146051347,-0.0047535218277933305,-2.7935488777284663,2.0520648303576747,-5.042393068472694
