timestamp,ax,ay,az,gx,gy,gz
0.0,0.1560478021086895,9.999815179158432,-0.12702199482784746,-3.315224424232019,1.970391148220455,3.7029536215528926
20.0,-0.8133652715004189,8.807472098754939,-4.448145260601971,11.696758673809642,-15.136235759034061,-28.132365469849077
40.0,-0.02833671562653231,6.267977144016654,2.980217720724939,-25.42757352967527,25.887245678220555,-6.135891916242085
60.0,1.5235721716812,16.6644361574832,-0.9075479251378266,32.4798158348393,-19.51712886912165,32.21208841018795
80.0,-4.564590631268627,5.668061776208171,0.601352801495542,-31.50036006982951,2.3763768605977407,4.031619196485975
100.0,6.40502333776192,12.439846385472915,0.13916922748626362,33.16787302097387,15.285264902401062,-28.473532413858273
120.0,-6.685915892761393,4.442722237202953,-4.0853347580545964,-26.825290192493874,-24.546560761182985,-14.655484300330727
140.0,4.590196699077642,14.606382448557143,4.552909390077039,16.785369907929653,22.831168120156516,25.969278629755674
160.0,-1.3552846341236024,10.384105692265877,0.3919783435744173,-5.710404606260147,-5.430732490031529,14.493157999023548
180.0,-2.498315612497192,6.952043572091056,-3.132491840660192,-4.049186381853744,-15.800936076382587,-25.00576331968024
200.0,5.240508275005855,10.65311572533912,2.049071459765391,21.232177445622114,21.784029854678977,-22.190261326758417
220.0,-6.330938737279549,7.242144991234041,-1.4441221447534809,-32.303193590502154,-22.159988338075454,19.77250557816096
240.0,5.3812383354521245,16.305018138550928,2.3191838637477598,37.573237889992086,7.399486170171593,19.784443043003648
260.0,-3.244951147673772,3.2655487138581356,0.4449592357108695,-31.02860201579668,14.429343938687154,-16.001470764374684
280.0,1.2415125373208253,12.256348355307283,-4.92209110389661,29.323225852655607,-22.86734592623264,-22.965936144815178
300.0,0.0013000421234889703,7.9608543909278975,4.161134325885634,-22.082276487799096,20.046401656235066,14.547308275844992
320.0,0.4406853198814557,13.792571930961492,0.7502830747614458,14.009420720470725,-9.531577195791165,27.083171141483085
340.0,-1.1497697893363452,9.284515140781421,-1.9354693656322437,1.3988203742663212,-7.607192112701741,-6.694689146390115
360.0,0.8391921497550339,5.446471282284822,1.1886284995372067,-13.051255880269602,20.82555268996596,-32.57128558107461
380.0,0.18874218631461584,13.823440490768304,-2.776574279022318,26.370144093400697,-26.38774006675973,6.727281044164295
400.0,-2.4078542000290475,7.668750433730383,3.8906994204014445,-30.903532938960954,12.654725121132167,28.300705374623632
420.0,5.388252728529423,14.702346026150176,0.6995264226066541,33.159658256100265,6.775425230614044,-0.6773091582886318
440.0,-6.668713058689509,2.5824014809389433,-5.290295843837885,-32.30773469013235,-21.282643434735917,-30.726441290559283
460.0,6.430044998045346,13.377516107416696,2.8620728587755773,25.88253963755402,21.69217060933221,-6.485629149455881
480.0,-3.6993419194696338,10.125100516451987,0.08970498493921063,-17.132898554259125,-14.017939629931531,27.652588566471024
500.0,0.10511442411849344,11.205529005252563,0.0008182664799657458,4.10687662709382,-4.14592623996463,7.847507068609383
520.0,3.4213564009597333,8.72416764259481,1.256133880619666,8.661789766812284,21.759450677975234,-27.783087500777413
540.0,-5.408704854588602,6.000647757632885,-4.176979452553727,-17.62847798440643,-22.314048073631966,-13.284251147888726
560.0,5.424510206681323,16.029529264682576,3.8383671725267154,29.800377624531887,15.247372900052639,24.849212720479507
580.0,-4.196844422278659,6.4391087812188115,1.4856253859742068,-33.01269171443226,-0.26299636248664937,15.138552988732526
600.0,2.3298733949670116,12.307943566988296,-4.185382822047431,33.37037397772206,-20.90214708648946,-28.151117928381357
620.0,-0.5951390709235621,3.8174967983867854,2.5673965716037523,-28.41819359156916,25.486402424678687,-17.853708110215027
640.0,0.9214092694565325,15.03071670419829,-0.9545753830091568,21.32392261579886,-14.500585300011773,21.1818285957846
660.0,-1.5144931329214693,10.012344397132283,1.4167054005358704,-12.566148126373044,-4.261561113379769,21.18519403158922
680.0,1.7823862732690703,7.609253035662591,1.2064349599601385,-3.909829703170257,15.189527849642042,-19.117079376228585
700.0,-1.1984823327100074,9.58548915246536,-5.227304929989767,14.585477162934827,-23.686831066608928,-25.513230392966133
720.0,-0.7186426437192528,7.201942529170234,3.568708600488738,-25.350075265642175,18.8083757234626,15.44684309543208
740.0,3.8895585034512568,16.185592735344365,1.5752221562173263,30.649844256182757,1.7245630790913147,22.77128716459744
760.0,-6.626943307959582,4.050806487733574,-3.275112227290714,-36.2880187792948,-17.952208594970685,-14.36834220315217
780.0,7.055380752707261,12.168333581180633,1.4498041738386458,31.5077725480997,21.66099671842633,-25.050631865095216
800.0,-5.338930265309202,6.437646037609362,-2.0312192016638377,-24.508669563415573,-18.312844902705596,2.855884704881843
820.0,2.7067393894465246,14.227277056819862,2.3766653597547354,15.039332431274746,4.9123370230890515,28.20131038361567
840.0,1.4808345331513257,9.211306048297189,1.54468642133336,-6.319452599835921,13.532549613592202,-3.0750003663130343
860.0,-4.165367892163354,6.097513810401558,-5.6435673167425415,-9.294742625714363,-25.85631355951131,-30.898710628255685
880.0,5.284652799459505,12.560778844051246,2.468783049393148,22.063891344646755,21.409041918174037,-2.643187186388806
900.0,-4.765296446773758,8.224360127190062,1.1718477795994449,-29.929124356003665,-4.982200987104214,31.853357253069063
920.0,3.094951783275416,15.228256942991482,-1.2951047398941675,29.882190017289318,-13.538344191968235,8.206335102620969
940.0,-1.714666486486986,2.5470501704475383,1.0831846793661533,-31.75266816308661,23.770712478147217,-28.11500099358129
960.0,1.1814019090942414,13.185374517301627,-3.8164408797323843,30.15685602142436,-22.922088759172716,-10.383533693503287
980.0,-1.7083756641826389,9.296983776237768,2.964452377813132,-21.099561657411833,5.542810822073127,26.644710622012944
1000.0,2.4889051225793892,12.576189404445467,2.2736747841998324,10.16099773652971,5.908067214464801,12.944727394133539
1020.0,-2.4736058993921297,8.29436432974104,-4.987394908756863,6.225321341085497,-21.62540303718506,-23.735528497645667
1040.0,0.7974585561052873,6.049114416945598,2.569932431238347,-14.742354120392319,22.28586299330541,-17.385820531683198
1060.0,2.1733780275005743,15.458399065576096,0.232556353090362,23.5900217175319,-10.516371801153051,23.85369226374242
1080.0,-5.186715381161423,6.934668619719263,0.44051902630150785,-31.039825529344558,-8.827600703515612,23.752943455722527
1100.0,6.806652255394812,12.9998787331669,1.7503257461632749,36.61042669097986,18.382245205570253,-23.71011381934625
1120.0,-7.139052383416772,3.2610295103088616,-5.136709699691945,-31.658248954437724,-22.623529970585018,-21.394363073672
1140.0,5.040645978421664,14.789791977201912,3.1138182250952426,25.883284683637694,14.93455938261857,15.870277699886381
1160.0,-1.8074286313074515,9.641503011333285,2.2590894201847727,-12.45520426130372,3.1811097507431594,24.189975074997452
1180.0,-2.3160829001041083,9.245537956968567,-3.679998154428309,2.5774263078730817,-22.767507836263302,-10.693523006637687
1200.0,4.383296818944676,8.964528749217399,1.7301627441402476,8.47284899637627,24.693766356658806,-27.27051233998407
1220.0,-4.59510589167809,7.607685343079855,-1.3027679519167252,-21.45264948942185,-19.448824240556334,9.310692145921747
1240.0,3.49672592012259,16.63511543397849,1.8108967103235203,31.120605523902064,-2.789554772343423,29.85890097178415
1260.0,-2.357926749825584,4.692373600112455,2.570864248421443,-34.630038262993494,19.10468675832252,-2.9177382093233275
1280.0,1.416959098125735,12.292132926077374,-5.4697800994092605,35.96975549995068,-30.97772787484068,-29.514177070032126
1300.0,-1.9916951972901136,5.68029919072183,2.6944130854398827,-27.923973737538244,16.681634364978635,1.862628294169392
1320.0,2.659909326150989,15.328386919531251,1.6792587123335676,20.113855958744928,-1.9499616451672197,30.39980992595779
1340.0,-3.5508364936623726,9.229303360984568,-2.068698961494509,-5.877323104411089,-14.715829434429368,4.94647966090569
1360.0,2.4158855185024257,6.513699862994939,1.7493079830443172,-3.6658610049896785,26.012830207121194,-27.508312900517353
1380.0,-0.4767717244024196,11.567953508629705,-2.9068811217527957,18.480746965256007,-18.021418794860132,-9.340485897769572
1400.0,-2.9359136234606216,8.18116070449843,1.9524048803933867,-23.817754870163643,-0.8222852879080036,30.883815419985837
1420.0,5.8647178327109835,15.558148134835534,2.8307176132295,28.067328959166858,15.271652335162445,14.484480934889765
1440.0,-7.5424997023269915,2.7155609508352216,-5.385767614606869,-37.47591401687666,-21.393355042405503,-21.791207835403245
1460.0,6.4301401743714415,12.84190074278158,1.5135961460900946,32.78575890460892,19.001358780520228,-15.041272285961453
1480.0,-3.9246552799866548,8.16151920138426,0.7662104549406107,-25.18431364765368,-0.728856497644522,23.58511599393471
1500.0,0.0774060370149171,13.288892867808524,-0.8288416136615399,13.934991085702645,-14.818344862916799,20.433253009284623
1520.0,2.457588886199248,7.976649942604204,1.9242793346138463,-3.882003422362678,25.280959795737655,-21.873449273534916
1540.0,-3.9873433032555288,6.394473278067362,-4.537530589335197,-13.44810727373934,-24.214774778998315,-23.528762477503914
1560.0,3.5056297857374217,14.65432393882483,2.0585053914185947,24.332658758080925,7.303959177249115,19.08032112037977
1580.0,-2.602656825036332,7.390540362439592,3.5899594985587897,-27.31482096976644,11.284142295683214,25.567426192136097
1600.0,2.064174106037437,13.772444703625844,-4.299874037239807,34.28030341391593,-25.674879052417715,-12.526282804190101
1620.0,-1.4411661120054946,2.615997711776719,1.269140479988646,-34.37097371418396,18.58103704566085,-31.90971562391045
1640.0,2.4156283784095294,15.15151485580577,-0.4874661715808802,27.746167373176352,-7.11015433461252,11.640914621523763
1660.0,-3.7217138787399406,9.288198109332107,0.27508972416242533,-18.790998839981608,-10.227599133958993,29.0335343625841
1680.0,3.6723083204728177,10.671319271569512,2.6829079014787176,6.696404306458849,23.39275841120313,-7.43003840156884
1700.0,-1.9771694146777656,8.142177344033783,-5.706478107525548,5.086356322644815,-24.746295312497182,-27.9806812819006
1720.0,-1.0844925075928071,7.6920588476889336,1.7357592565177582,-16.89081031821211,16.154220740167787,1.0068498100031789
1740.0,4.434908461153848,16.104581235006844,3.000241396841451,27.01744825132848,5.011486585348085,30.408246276394113
1760.0,-6.732321950829779,5.13069824992768,-2.8702496347919415,-33.19149415085841,-18.479242337146513,3.515005744549321
1780.0,7.539485064376948,12.327436646169243,1.2113006513274003,35.958925528601476,22.039464465504416,-30.355571334892097
1800.0,-5.507906420237507,4.321046921140973,-2.3038530178761225,-33.07121677700858,-14.250392762266971,-7.346712696193551
1820.0,2.661347594766454,15.76380706891748,0.9250541447061245,26.36025080794704,-4.138377437783429,29.639503189715537
1840.0,0.9830659519243516,8.696314474401035,3.827429283911834,-14.041144263232386,23.035485042615374,11.211701655346557
1860.0,-2.866263382789071,7.335928367172129,-4.958675877932452,-4.216339970095801,-25.443778687344086,-29.649228495962916
1880.0,3.6152890819058547,10.328713662766969,1.084143773143072,8.831691861640783,12.225755707245025,-17.03794906523622
1900.0,-2.6481817149503484,8.374445554613839,1.8818990227207864,-21.003026557672175,7.164826191587903,20.6045133226813
1920.0,1.6222059229432493,15.794548571359195,-1.5707852215307434,28.970082215694582,-19.008163751448233,18.774340720367174
1940.0,-1.1440067336655637,3.2862386750519406,1.7339653089842233,-31.263175342706546,24.30183079446899,-21.9489606809901
1960.0,2.197319761836471,12.837313926352193,-3.9201966715159555,35.20800795795951,-14.344765897032529,-21.95796388660836
1980.0,-3.6949381116824895,7.0193873596199365,1.2246677319430486,-29.50858001408071,-1.2190174090666128,22.083077051644956
2000.0,4.474159417369189,14.442301036191415,4.176957013272942,19.524605250084804,14.723916604324758,23.958448892544602
2020.0,-3.5715185956156956,7.577670659896962,-4.4381481794428534,-5.52739114768443,-24.792058884784414,-13.706598054366173
2040.0,1.241526630862683,7.035647435179261,0.5743309845700392,-7.4902072273603455,17.490869263497395,-27.2745878983949
2060.0,2.0395677455019716,13.606557004194833,0.5455000302605905,18.831837157992137,-4.503035994073814,11.455827123609762
2080.0,-5.4626487718222965,8.217660337313319,-0.3307176644818926,-26.922842825103018,-14.980686800001916,28.77912744666258
2100.0,7.289190562399099,13.946201322150861,3.098113203450676,34.13518211060705,23.707187818967803,-9.243882264345197
2120.0,-6.962869837436198,2.360326575308454,-4.748484309796982,-34.01385440439721,-22.26415065694755,-30.048616300398894
2140.0,4.36463539545233,14.506591566321264,1.1330288539476094,30.507080230776427,6.262879159451017,2.1554735409757226
2160.0,-1.2588733027171413,9.159935017321635,4.028908433598945,-21.600396440277713,17.040899735483283,30.447807703325314
2180.0,-1.2759609775073484,11.592990339641991,-3.4198586649501763,11.70486762399239,-22.536066708017568,2.174912267367704
2200.0,2.53211146621982,7.393080983015729,0.6248883789614792,-0.9289657276603818,17.00228094150836,-29.546175932294073
2220.0,-2.4535007284518873,7.4273095262846365,-1.4568999501100761,-12.810018097650904,-4.662508089063755,-6.876215062598032
2240.0,2.0484128556391816,15.743867710369472,0.35621662347784233,20.526081691266338,-8.636681477936996,27.263329921841237
2260.0,-1.097966580154941,6.105232962521304,4.475830969494157,-28.629192981010306,24.493158675178258,7.116289321602985
2280.0,1.8838988269415575,12.329773743091357,-5.022955863436592,35.383312684811756,-20.873781837268965,-29.087137656638586
2300.0,-3.1035414736857763,3.7615638542905474,0.5451054806398697,-35.76430996542619,7.621070577773858,-13.166083626239057
2320.0,4.65719883859201,16.017725217967023,3.0823879943066443,25.257739178493622,11.630151958467371,22.749291886536714
2340.0,-4.778664410829423,8.812803086537691,-2.020664286234317,-20.038605269010556,-23.895824037946092,15.152320393178982
2360.0,3.79748156323513,8.495670854102666,1.4589669771214389,2.706515691617241,20.32041747108024,-22.200240814912103
2380.0,-0.37790162598419136,9.121663186698315,-3.1332825173302523,9.209418406196626,-11.460602368301258,-23.9976835166029
2400.0,-3.435728032113934,8.906043037631754,0.27799885660993284,-19.188709419530046,-7.508390723817851,22.165055628080154
2420.0,6.096013149699422,15.824472287817738,4.734360124299599,30.935384343681086,22.277987737955502,21.44195916902134
2440.0,-7.6213514142950265,3.8315772881643917,-4.485151297127637,-34.24528790614805,-20.692588366430044,-19.873836600538016
2460.0,6.100756374771983,12.611425276657611,-0.11554588598662133,37.66807234184435,12.113369082107921,-27.69333562154172
2480.0,-3.2862609654600714,6.336859897299446,1.3676664441708835,-28.106116802727737,6.721114257124842,14.374146526737656
2500.0,0.4020356788126529,14.765050938706718,-0.887945324939627,21.76028940068544,-19.074977698767025,24.757115826305302
2520.0,1.639440810166354,7.922395507020118,2.448661970527974,-13.201425752500299,25.02931932408418,-7.033465268807729
2540.0,-1.8965832347591123,7.6403048560643825,-4.384180800132852,-3.1353345054547144,-16.040149531027584,-27.812145070392113
2560.0,1.256466571701509,12.48019015905361,-0.1872293902230784,14.449330547899358,-0.3411474370713887,3.0778629247750886
2580.0,-0.9673735646562036,8.710967046347758,4.818381480489098,-26.910429386065555,21.85059355390679,31.746514129004314
2600.0,1.190246783684549,14.313870310816144,-3.236219405314437,33.864802167971725,-27.11032584293497,2.3473667307533326
2620.0,-2.4472652674330235,2.2670079230060343,0.30902563245616177,-35.87197445420484,16.652374699767773,-30.076124981062613
2640.0,3.990472600110541,14.022957829345902,-0.6684625140409914,34.1436589737142,2.1219715199414493,-5.9220491875218935
2660.0,-5.241722258488085,8.547342949279708,-0.6736230475937574,-27.045838631919345,-19.444753802527664,30.77890323731638
2680.0,5.438392496909974,13.142529809373704,3.730935794190417,16.91431704847346,24.239744073559528,8.011649977160099
2700.0,-3.0642297703849946,7.2698393624250714,-4.529430097910681,-1.7837347040417235,-14.869116372662303,-30.89090857965997
2720.0,-0.964297468040688,7.312973034308632,-0.6552203423427452,-7.356969005920842,3.136140659896948,-10.85363398402782
2740.0,4.316502951332298,14.759236324887896,3.726793491103309,19.451413314006626,18.621391842429503,27.195731092116606
2760.0,-6.480039827628527,6.906400199649295,-2.518070078333626,-26.280964481829308,-23.7680289112656,16.329876947514943
2780.0,6.886216488573002,12.227357609257549,1.3396920337440947,36.59793259126977,19.655450190253323,-27.082696420385066
2800.0,-4.817774454318035,3.3355946034798696,-1.6849231898881252,-34.563237537346645,-4.190839543993371,-19.385333248864928
2820.0,1.9233277657881025,15.510603733082267,-0.44326034244008683,32.03677414508147,-14.20564852690046,19.391799802020188
2840.0,0.22413400992844834,8.582641898965193,5.034545013405576,-19.076026256578217,27.66452932343375,21.71828200158542
2860.0,-1.5017467536698765,9.826120191956681,-4.086149869520756,8.70577438323723,-17.823595139805406,-18.42117075573434
2880.0,1.0619302941611435,7.908051523346635,-0.5652290494214318,3.3279365521209265,7.920694788783186,-27.030977289784555
2900.0,-0.5439449506991869,9.150615998686842,2.5998417555282423,-15.95790656595477,12.374909815166296,13.99889292095255
2920.0,0.3366222145603079,15.985935376095563,-1.3570403796015376,26.22056261153349,-24.92230066887233,28.05182455030074
2940.0,-1.4801766196896713,4.190451583430133,2.3765121933449143,-31.72023387309671,22.203869303982643,-10.686143422057608
2960.0,3.412413064433276,12.24103443113395,-3.256178320123993,32.66802114051464,-8.585720109701446,-32.208313733672924
2980.0,-5.566753989748987,5.290211510616696,-0.8877518543841026,-33.64083177537992,-8.739017231540616,7.484592611477579
3000.0,5.682920988380471,15.994447364607705,5.100191719209078,28.318524592541234,19.99830925586688,33.09291209398387
3020.0,-4.575775579669482,7.260797395113523,-3.3442150618355835,-15.029054474920013,-21.787570635516367,-3.7762992174814496
3040.0,1.6429278358401713,7.93089649135584,-0.6076546189381314,2.410651497098674,10.511704469908354,-32.124358035065356
3060.0,2.2451908453945224,11.057351192767255,1.0493769464674219,12.18634737577251,9.540592451010268,-1.9767850375957825
3080.0,-5.111919839218473,9.284449823234992,-0.9574458188522472,-18.804398829087038,-23.607179926339818,24.761998068774304
3100.0,6.764140174672094,14.3728136541693,3.702887274622333,31.561770206222082,23.61561362029281,8.331498446613248
3120.0,-5.953836546797001,2.645876333298776,-3.7515498657802744,-34.22815305047329,-10.903100397754649,-29.683787660135224
3140.0,3.733551195043389,13.917654595768498,-1.5176875784286867,31.72823062708733,-5.845332482302205,-13.226318639243381
3160.0,-1.1241162199721517,7.855725150593343,4.893996724952165,-33.921763835725876,21.937451623349506,27.552362307602426
3180.0,-0.3575478585272155,13.675206233475837,-2.56570958776138,19.96652975671529,-25.368131945095666,16.14538370930954
3200.0,0.5265762448281145,6.7040556745282744,0.42702192088609586,-9.118702810058387,14.425244942016592,-23.913181531008227
3220.0,-0.0738909550380033,8.029618186149335,-0.5906754528146744,-7.967448631343403,0.9145648538954441,-13.811442553433505
3240.0,-0.5453800347095223,14.081823811165739,-1.5367181428678585,14.543632717588684,-23.64092372225079,27.872881841685512
3260.0,-0.6767309270099111,7.995736413442104,5.136062185054721,-23.923752125886562,24.83631934911785,23.875547539233768
3280.0,2.225216829441102,13.030848870383108,-3.5373654397020315,30.046829992734406,-16.519443234599752,-21.914189081788535
3300.0,-4.517321763080102,2.989570432684003,-1.5503903383022883,-36.82904498264596,-1.2771635450633498,-25.692276290227266
3320.0,6.019854930125781,15.264357186190045,3.5069839553869837,30.92866417891763,14.225781479917831,14.48735602047859
3340.0,-5.903502779995279,8.407069338307043,-1.669593960950186,-26.026504000859276,-19.097672798743265,29.165767805371146
3360.0,4.233956030761411,10.854598854351943,1.8301393926112077,14.171021137126177,21.10707517422146,-14.333258195157024
3380.0,-0.38567040743664155,6.89075123199435,-1.7500057522031587,1.2973872485663123,-2.8658713648858303,-29.571657797231644
3400.0,-3.237512247059789,8.767143453860774,-1.6380921890840026,-14.604734807046057,-14.519480387324766,9.182938474065805
3420.0,6.0796053019616,15.266092053752997,5.418198194284699,18.82314073598692,28.728567841109413,27.174906099432526
3440.0,-6.7030467981698685,5.499519225746057,-3.148891377223717,-31.356657437608106,-19.05657774710624,-2.372482202551205
3460.0,4.625736496138817,12.300320473637969,-1.56489770803027,32.11803070538712,6.387399254186633,-32.166646255881496
3480.0,-2.612051230819738,5.092073587115103,1.5528701457465472,-32.076931323710134,16.41939936678811,2.2810140322393626
3500.0,0.6447956636808676,16.83617078910048,-1.3379073953563185,26.387308133168165,-23.524901351291554,28.20289988862213
3520.0,-0.1987869354611058,7.53066239056715,3.2851081673785267,-18.19388427102618,23.064964016790483,7.367674860255068
3540.0,0.05176402717145723,8.817270814005184,-2.844008348329287,13.738178458033646,-8.282865277086122,-28.20901137924107
3560.0,-0.9068018177381345,9.907187679472347,-2.242728667468045,4.677440420413292,-10.498659394195537,-8.868449746238309
3580.0,0.9809055474889523,9.854893269250413,5.210649517067482,-16.698701736091678,21.634401176265303,23.809162242375244
3600.0,0.7634135028179649,14.690895230439832,-2.136746506482764,25.924673321525596,-22.829019674541186,10.691651007880536
3620.0,-3.3441226051752713,2.939004903844313,-0.5247460331429754,-33.918385654631926,8.462221614262125,-25.689705010852624
3640.0,5.639735769811053,13.70245882435395,0.7401155029599417,35.68429284824857,10.790095180896047,-16.863233498837335
3660.0,-7.070904975363284,7.321821841062599,-1.7366635242510868,-30.983074343535282,-28.573453855993883,24.489410667601984
3680.0,5.745241539734168,14.93205908743294,4.640420257553974,23.776202202028415,19.708014990103614,18.576987661244303
3700.0,-3.297520335867919,6.243426347517957,-3.0361125951426984,-16.06932042676868,-8.235278592201976,-22.405626058164074
3720.0,-0.5332617649679893,8.111446456665481,-2.957918952875851,-3.2082578914321087,-5.316877631023206,-25.003705212992873
3740.0,4.05604231500088,12.814005223843893,4.035196662348619,14.041557736076248,22.906977332495863,15.481636079474411
3760.0,-5.791038702919794,8.490303372385656,-1.498773243208316,-23.6533870808504,-23.709614061527194,24.449423891625464
3780.0,5.675578264625643,12.942157453982217,1.0221742833996847,29.46794982248406,15.333988436035048,-12.095642427851642
3800.0,-4.084404959648424,2.909271337633691,-0.9929735567045122,-33.267358883678554,7.44124582641512,-29.04530138542814
3820.0,1.9366357738750293,15.650447670902924,-1.8328658277646646,34.03989536110088,-21.110719391943686,12.19036636705367
3840.0,-0.6981429859077293,8.10908793684327,5.2970384722353305,-29.440330790068863,29.478067042165282,27.212074824886045
3860.0,0.22888352887420876,12.06320001297617,-2.1810361674030725,20.535918581875123,-19.905497750538025,-8.735709336685613
3880.0,-1.2830357525889975,6.728801404760316,-2.4757807319051137,-10.077382373903085,-0.3715311903805767,-29.681913506754302
3900.0,1.1834469816281077,8.771237964785067,2.7237785324845167,-6.2411677191780015,22.19541479890189,0.9619203756934278
3920.0,-0.42781931417958063,14.912752091008084,-1.3214523210096996,16.96974579699607,-29.045113958646464,32.25957607603545
3940.0,-1.6368419290788891,6.028063434951547,2.2147774445182997,-25.977444086229845,20.1814591179707,3.1105639493231645
3960.0,4.124775935521858,12.027552207721602,-1.85448974753925,31.809446416909267,1.9813176468559592,-31.05386049948535
3980.0,-6.842551404171228,3.9103559595807957,-3.0241838883623906,-34.27052411186328,-18.361997791989094,-6.974006982703365
4000.0,6.357276148164564,17.05287462285466,5.403025732864894,31.355095206475795,28.007866965106714,29.75899808291543
4020.0,-5.152747870404088,7.364222582922545,-1.8908964692500803,-25.702542188687925,-17.012820163233904,13.957510916633497
4040.0,1.8765957575037804,9.324853356913879,-1.823948538219679,9.362604096790681,4.448087377798605,-30.269640471932213
4060.0,1.797851341078816,8.315548974830111,1.0392675174700359,-3.8215578462764763,17.200983143128457,-15.575521802731336
4080.0,-4.729216187118422,10.05596277924007,-1.7890358607347014,-11.317688696091029,-23.91396102168224,28.548594491793295
4100.0,5.532277499737116,15.06277497332556,4.098120752989987,27.083087620500432,19.163217947160565,23.618472126886655
4120.0,-4.476214666411508,3.4036676069583094,-1.7610839012048185,-29.88684049815718,-3.499223647090114,-17.818892335365277
4140.0,2.5526603208081764,12.940280458769136,-3.667044239654639,36.036962864053244,-13.6847194590535,-20.595804493829718
4160.0,-1.272128185893449,6.597411498504986,4.4505552894569185,-34.78761867899399,26.95260867870579,15.468310642577798
4180.0,1.053614581441517,15.928891886289387,-1.1620166589672474,28.090769731924382,-22.279943255050135,25.697401516869572
4200.0,-1.4929986033138394,6.025905398216704,-0.1420836619732831,-21.38761229603817,6.288710499238361,-17.675178358870017
4220.0,2.118949083112561,8.631632750178705,-0.23914561118634345,5.588895422904777,12.682036554052923,-26.32577698049651
4240.0,-1.9943958939655395,11.70798278319095,-2.4830932751169983,11.594231274538789,-23.74200975245452,12.43970357352071
4260.0,0.057244228198897074,9.690956000475998,5.193833715188099,-19.98231654557418,23.791160813556843,24.83969299856615
4280.0,2.699747188359786,13.220902754160383,-1.8857208193112784,29.807804842317847,-10.166727920247919,-6.091304814828673
4300.0,-5.416255192414769,2.44391815022704,-3.7026540698250936,-28.39975287678326,-7.338187987801989,-29.871027428227208
4320.0,7.158192893222088,14.934610373383556,3.248286763012572,35.413599654607,19.977026846652915,3.443283144120299
4340.0,-6.780960402922266,8.197880669663203,-0.94905745446767,-31.27117091053692,-20.803614717647367,28.369723747132497
4360.0,4.1505250680883705,13.394503570500724,1.6727914371794967,19.97242524972066,9.363105796086515,1.558260763835035
4380.0,-0.5555282835331302,5.777435211891237,-0.49326258914469784,-7.5765318598960105,7.726003921500112,-27.86041099725517
4400.0,-2.703170808669898,8.71832828415506,-3.793568106349068,-3.804961340642936,-23.56488983132183,-9.510467648361711
4420.0,4.628319567039008,14.283652084471766,5.061365032836923,13.541003702843614,25.48852337445317,26.405319215998716
4440.0,-4.800527769301025,7.50400426941134,-1.0306847797847645,-27.440396070182317,-16.421140566134152,7.421674638391789
4460.0,3.194664808125841,12.036173414554755,-2.717612854640981,33.6205040070886,-6.236955771177496,-26.444393584707626
4480.0,-2.1503701944582283,3.6547548873520053,2.13560863878613,-34.60346232531405,19.03436702929909,-14.499368859769103
4500.0,1.3293824185531762,16.63350928783433,-1.6643037813107422,34.23093433072925,-24.22368374185612,23.956287048551665
4520.0,-1.8436044346516876,7.711267744084658,2.89896859280467,-27.623261524322032,14.234686503241859,17.024212710665594
4540.0,3.046840817456223,10.605538791139649,-1.1061254655929948,14.359556418338286,4.331874848790052,-20.100547880280104
4560.0,-2.844876545649063,7.469451610157192,-3.868861617813903,-4.084795492753433,-18.69832202243892,-17.77914533898386
4580.0,2.2518213083357366,10.467563800770563,4.7896417351744365,-6.136064808508715,27.735071688311162,16.866670395756046
4600.0,0.625914517076964,14.720663395880973,-0.5753532345318711,19.116502376407233,-16.81638432261935,21.11048916723472
4620.0,-3.785406449443442,4.331970887174325,-0.932438542855689,-30.590356542984104,-0.5563715389621485,-17.012293683480205
4640.0,6.620440234797079,12.492450262530758,0.6811207931845957,35.407639708044485,17.82317361988284,-26.26248785193871
4660.0,-7.576668577294285,5.944478016926377,-2.648690384050575,-35.559408327330516,-22.953917868552793,8.47258444557605
4680.0,6.086238638016336,16.22522281150578,4.8697950489414605,29.627524230388193,19.672070098223767,28.406494835399652
4700.0,-2.8554435086069696,5.760249436715782,-0.4367530132073206,-20.799352511247882,-0.24808227080419631,-8.355748714668563
4720.0,-0.5260044499152492,9.052100441737547,-4.223045241514178,9.138231776751285,-14.349617292264421,-25.722448502804212
4740.0,3.3113054649851246,10.817772601749,3.6592313516002175,1.67312342469952,28.114177458955904,3.8414543156299916
4760.0,-4.297152972547702,10.24514789526911,-0.31435750653012384,-16.990814282878105,-20.300252054476093,32.65765363630162
4780.0,3.3499014818208863,13.530878673458199,0.35411218278569523,22.298014424302856,4.966001020005295,-0.13044005382970203
4800.0,-2.1919848387180476,2.7041410130748704,0.21097726406212525,-30.91613509050323,14.720561347617021,-27.339585773507586
4820.0,1.7185231903095943,14.179562658679066,-4.080279055925455,33.145046186989504,-23.094427338060672,-8.767419502672011
4840.0,-1.8319078903464185,7.3537693416727965,4.730858643964312,-31.89418683635665,17.319820789033542,25.627002528876076
4860.0,2.468122091151018,14.201689051281612,-0.0244632563658517,26.630624405849687,-4.039323804836174,8.839873268714836
4880.0,-3.5970909199148497,5.242612844532063,-3.6066571537161725,-16.766956343571287,-13.575476819443026,-29.210403838780334
4900.0,3.3659367316927598,9.14547445120422,2.768797148425348,3.677732026725474,24.027556977010406,-11.549173041626126
4920.0,-1.9012819012395235,13.233356836472788,-1.3695539760901823,7.102822944982905,-21.519056607666066,24.38839294821052
4940.0,-1.1711798558901423,8.0247951887418,2.405243022225527,-21.230569159521693,11.940872745986207,19.045898683546245
4960.0,4.9324239221587645,12.291013865844059,-0.0754231497337929,26.696065272553867,9.617541209837556,-21.625964746282406
4980.0,-6.985506344320549,2.9770638135545564,-5.015241182058112,-35.05130701372248,-22.810021628631052,-20.492671967853678
5000.0,7.206311373223707,16.660175184700858,4.693298403821263,33.98838257163227,19.895356657057565,23.557706052008776
5020.0,-5.241358200392955,7.464152576886045,-0.22670537697977605,-30.47691923454246,-7.691824700733937,20.786736791438216
5040.0,1.807131915423561,10.959865360166834,-2.0308322751380623,20.83990087088505,-12.329660828403252,-14.870341730223807
5060.0,1.127939303643727,6.165459682405052,1.4540098943853335,-7.085606647441721,21.423625897470878,-27.43078383966054
5080.0,-3.695202142749737,10.111417273923301,-2.4088417299531097,-1.2605791998954161,-22.038645021866166,12.114001170248887
5100.0,3.637525424493248,14.528984026434376,3.4034348900367672,15.55767910755027,11.303746182148814,29.30846665767231
5120.0,-2.4794283877858185,5.553314141023415,0.14521065541113734,-25.82254920369807,5.547451236366884,-5.9725428276801615
5140.0,1.7094698527905976,12.113966817946855,-4.64619180676789,32.750888370798656,-23.8649724385744,-29.478786362211856
5160.0,-1.4752557558535695,5.651201671811278,3.866437844351223,-34.68015938459322,22.626087158605646,3.0119441928664363
5180.0,2.3959303617459256,16.801848810098523,0.06701724977817947,32.121123988851636,-12.808952202486317,30.610335415978664
5200.0,-3.8919642305534263,5.6738553009848935,-0.5784862481367449,-27.075443394268834,-6.461852979768391,-2.124260303663899
5220.0,4.069433928081268,9.14903529240483,0.9350829588353602,13.60433665523928,24.406133100462476,-32.47863307392639
5240.0,-2.8270617354778995,9.286472613134622,-3.583519736199269,-1.3185628207877178,-26.46846708617768,-3.4720049221045595
5260.0,0.4570283955615196,10.254985636618228,4.364921518492936,-12.426160929605867,16.419125777230473,29.85838005084086
5280.0,2.8997309091426096,13.646217304630158,0.8769551432311142,22.077845132926402,-4.636920477886818,8.383201725193
5300.0,-6.149081419011765,3.344378743050397,-3.7496386125133063,-31.16818550332526,-16.952040435554494,-31.229557259707477
5320.0,8.036804151022679,13.81244777439469,2.3571775963966823,35.28702382000658,23.66302404685388,-12.27323175487734
5340.0,-7.124624230727089,7.064401035499289,-0.772839538359518,-35.5801585632468,-18.464200798717673,28.064454506516057
5360.0,3.8544613684156523,15.526442062928819,1.331642680077183,30.029358116916995,1.861644251442586,12.72826131848877
5380.0,-0.5681506479480836,4.683783916046852,0.6741276012463223,-20.57232529061498,16.351225763932433,-22.494436024523935
5400.0,-1.7995774366492516,9.305035397390549,-4.722896849378882,7.793411342156694,-26.861668583279965,-20.19097409426087
5420.0,2.6417552203814845,12.345475225045575,4.177088610156149,6.134770668291581,20.179467168870886,23.028262742582776
5440.0,-2.798741627473424,9.178105851143417,1.0493630986365818,-19.53429707472084,-2.342256112489311,23.78769998266861
5460.0,1.4206192510858207,12.225661168629875,-3.268460221328994,26.178742426433374,-13.628219159363,-19.655755265174975
5480.0,-1.27824741240564,2.821944883097575,2.1228665027544062,-31.636109051414554,26.239449233195266,-26.140879558784555
5500.0,2.2848445374608426,16.02873736958837,-1.798327571203732,36.73072308438176,-20.016380349818007,16.0626036217472
5520.0,-3.642256442017834,7.591865582792747,2.630643011562345,-30.902823563029486,6.2963378683539135,25.73475183186362
5540.0,4.3175246538195555,12.219226132383533,1.2461994018822058,22.988302704346115,13.425523757158768,-7.168400092832583
5560.0,-4.7519387055683895,5.380308456752001,-5.2391095148173354,-11.897913308847471,-25.58230367525903,-26.432054583125307
5580.0,2.94702884118573,10.581956606753234,3.680812372546863,1.500796436067945,23.472102090701295,6.59557338563023
5600.0,0.3753765413731663,14.158983724260702,1.0103646818012686,12.045997763077349,-8.617641446119546,29.858873563309412
5620.0,-4.113061557809367,6.409205941522023,-1.8087853517707715,-21.9205715854792,-12.119547796155693,-4.914084384565157
5640.0,6.559782252580934,11.343802354947693,1.1384070286182764,32.407833589748954,22.838352079984972,-29.738099401504492
5660.0,-7.384904967266648,4.728770612208671,-3.2832780906452133,-33.31300776861485,-20.219047593956628,0.39920325203608087
5680.0,5.4170875234045806,17.161236503302714,3.0683401145631195,30.143847563420366,9.027219738571727,29.830435254019225
5700.0,-2.547641140798423,6.231308967758596,1.1113664974662332,-29.711459224335375,6.6168786179568855,6.925523400067692
5720.0,0.008491357351930406,10.297592883368013,-5.076556283717076,18.688925760481023,-24.471892154271103,-28.403413328775805
5740.0,2.088103944361723,7.782854463886949,2.538412257377697,-10.224493149449323,24.372726670025564,-9.78170248897371
5760.0,-2.1621989955387813,11.296483374812604,0.41134726137231126,-4.30895442311039,-8.520516292558943,27.73073019846764
5780.0,1.5624638040780798,13.381338259514123,0.1461293910082952,20.394956740907734,-8.261901981859438,17.43815628558483
5800.0,-1.4746790948174964,3.494846242541686,1.4211052682016843,-27.468316988802393,22.244679072830223,-27.164697336544897
5820.0,1.0782321783986668,12.973960792734246,-4.670302032360684,34.2832127998508,-28.300795050899197,-19.620595038040545
5840.0,-2.671556386452612,6.782363552084186,3.7767796293676166,-35.256353300958196,18.675346233129275,20.577831893998813
5860.0,4.503396599533554,15.683985210569604,1.9086945926148813,33.04821136793352,5.448936729671104,21.901282890523508
5880.0,-5.30398053062377,4.773482963982397,-3.903402821407802,-24.92022588472375,-16.750975694887778,-15.590896549064931
5900.0,4.7019131635989835,9.368918984098288,1.643491543967449,11.67822043504723,25.0774279067628,-25.382047611208108
5920.0,-2.0494686687326618,11.206313684005083,-1.1936626871216272,2.7370081111392226,-16.652926846769095,18.770748120876
5940.0,-1.7005648320511957,10.150819780341548,1.4158223203689544,-12.615775709929821,-1.1818245572665271,27.456633361032715
5960.0,5.341941336107593,12.190467765253166,1.8239347726328536,24.85432969117493,17.9744682439501,-9.765958682188018
5980.0,-7.015162583824157,2.8818549260076436,-5.093553884732697,-30.851623539445487,-22.008661091886545,-30.104266423875938
6000.0,6.800019163704333,15.196765049096262,3.1304852998569994,34.77551941813485,16.977945757261764,6.66575296318329
6020.0,-4.595446004766268,7.033421304432668,1.8173340212872977,-33.83772777449509,3.4971435318623105,27.851548669100517
6040.0,1.3990428935957486,13.11750804588638,-2.360587142575345,29.9299321248471,-16.92765827088024,-4.325140562277598
6060.0,0.6402531689895358,4.583239276374104,1.591596857915199,-17.69545560672527,23.171929312926117,-28.188546015717368
6080.0,-1.7071823118643805,10.310184270388675,-2.87443514519186,5.691374281607257,-15.38969233377603,-0.1239157099475886
6100.0,1.6027315319792366,13.111361231505215,1.9658743302729382,8.451191316705428,4.121054877113398,27.518793643433483
6120.0,-0.10296112414709502,7.499906815483416,2.5609408336866237,-18.876831406189776,15.483647883446181,5.013045750596485
6140.0,0.8162305170894932,11.260632760191385,-5.612441866609464,30.25574898707609,-25.065177080550956,-32.42588016659655
6160.0,-1.6659121582557166,4.2847165143329,2.235338161158829,-33.63238401731628,19.488700521281476,-14.094204316991618
6180.0,3.7417316002443024,17.02617618126277,0.867347884230316,35.347828519257384,-5.536678859333114,28.683881956619683
6200.0,-5.224935166985536,6.393850849456922,-0.8061634559173481,-30.058536388207557,-14.186467449555671,12.313585872745335
6220.0,5.717856004267086,10.935962078838577,2.1500835027502947,21.972260157845927,25.50954461515177,-29.18314307789832
6240.0,-4.0937418083914165,6.619942623792371,-4.366009334595531,-14.48888156574395,-20.57642839653348,-16.84046633278012
6260.0,0.8580129278397917,11.54428759152376,2.8617351004974028,2.9675254542065455,5.828814884253717,24.98964106826981
6280.0,2.7188062898773113,12.953289717378272,2.9006906893766855,14.392196218885923,13.544458326677947,21.274748281947332
6300.0,-6.192295698207634,4.725143099820807,-4.587614267757078,-25.25010562154789,-19.965763410290105,-20.492869648737862
6320.0,6.823155483218501,12.072849276959012,1.4461127192996317,31.124304656698524,21.433068166392953,-21.373360063928352
6340.0,-5.691442136472736,6.390612482632688,-0.4092114754055871,-35.55635094026203,-12.079835961575352,18.86662930856519
6360.0,3.439796517150071,16.377056786601443,0.6668720549463011,29.287099447631967,-7.942889288671945,24.273493456183786
6380.0,-1.2654158868477094,4.969817229002934,2.0578916168155614,-27.523583210302327,23.04349230636325,-9.61909663699188
6400.0,-0.9210720938480591,10.161391958668439,-5.145356521743487,20.023901784945025,-24.450633643830837,-26.404217194369398
6420.0,1.1373029216837487,10.407950185468449,2.0613020098413326,-4.86897100070332,15.050306937616908,10.865366627411948
6440.0,-0.4481560303289043,11.561209172092298,3.051541303660784,-6.214899985910423,8.526719660001115,31.577047335703252
6460.0,0.07216408615972461,12.340237608230137,-3.08023482713719,19.263604837858395,-23.880681849335176,-5.378257710930678
6480.0,-0.935683498622794,3.1507456381218866,1.651911186161493,-30.779197169142982,29.067711470825152,-32.763161131415366
6500.0,2.958042629176929,15.016844305579257,-2.0903773382501534,34.324332762777,-16.26692197049845,-0.5622733167275282
6520.0,-4.887755236625539,7.23636076545329,1.4531732884695399,-34.57004159061091,-1.4230065525973843,31.07901350811238
6540.0,6.700019626101979,14.657158286803929,2.784800750609306,29.341081368180948,21.932298309624606,6.319289698320009
6560.0,-5.6230780053754685,4.451519297070829,-5.274012855853322,-20.485187155613627,-24.69017400419725,-31.47093758045578
6580.0,3.3208362594261613,10.451487373626366,1.7670986983741948,8.874500746592018,17.30421467389021,-7.75856108032378
6600.0,0.7190855526795665,12.322311128187987,2.0192532132374277,2.1383023589280516,4.721272543826494,29.475095060658454
6620.0,-4.139130432354448,8.442187386732694,-1.300668148277098,-12.294958969584336,-18.56770937933131,10.779934774046186
6640.0,5.88098262241458,11.63097654694811,1.5634242721760798,23.820641033899108,26.088067178313707,-28.490013115993698
6660.0,-6.454809441828567,3.8921991372055587,-3.7730985747128294,-29.863286510154897,-17.78962716051834,-15.766741346732841
6680.0,4.593394434955537,17.021112603742832,1.8091503399908435,35.040333674235264,-0.4555158320875854,23.593381593533774
6700.0,-2.3406445656982715,6.750651078950811,3.9455860096712305,-33.3231682083108,17.685679125904258,17.56794761285609
6720.0,0.6488400454557888,11.509763025538403,-4.777991071039988,24.793117515875874,-23.83419702082196,-23.5395775252628
6740.0,0.22818605950620724,5.775682155588373,1.062515713407882,-13.593107423837386,19.23756808903587,-20.492926025712215
6760.0,0.25981718571873186,12.17049202642191,0.8820391741123067,5.594503688400517,-1.476258898303334,21.21736475855012
6780.0,-0.4359594074445438,12.92455196958116,-0.6329194770821811,9.810456112994862,-17.352601829709865,26.862320466531536
6800.0,0.5737014845811357,5.499881306798231,2.3710949869459665,-19.242714109320236,22.808653367250912,-12.401997427335374
6820.0,1.2749373595727673,12.091842314046374,-4.481314416817569,27.79664686142227,-21.036799204086307,-26.026240580808523
6840.0,-3.730508660849131,5.645111648560857,1.4344262237702035,-33.08092273460363,6.00126611015076,12.618263599828065
6860.0,6.033412221649374,16.775961162065304,3.9766441195941153,34.72174766374631,13.489784999578935,30.644232584575953
6880.0,-7.069220124092099,5.15218182417528,-3.8866559954051163,-31.92443144231638,-24.375151863669604,-6.9897809965001665
6900.0,5.396034875478053,10.484551310983028,1.6056539316515874,20.120039318558923,23.603495202972578,-30.16104074320951
6920.0,-2.494829459402475,8.76209624156014,-1.27722852725547,-11.316256694079808,-8.679195478004786,3.593477687008744
6940.0,-1.4538165283434028,11.874983583878281,0.6807866469956197,-4.863777346081379,-12.219242271166424,32.499805922267214
6960.0,4.722063398203891,12.320561252724366,3.5923643488378163,16.505374290908673,19.983516597012333,1.6054265928121674
6980.0,-6.1169110502463635,3.6487720018904204,-5.12522399326952,-25.864749701970666,-24.893942816720436,-25.48499140393497
7000.0,5.951122573658385,13.972292819003576,1.0114414665294478,35.2132911442568,11.216163158097777,-8.255841005203669
7020.0,-3.3239886478477185,7.28021696166121,3.2847078366053992,-35.84898937400553,11.907734723037558,26.356692253490557
7040.0,2.0197676685760246,15.365053697442677,-2.4624724920822625,31.648557023652195,-21.442606570174945,10.793357448699709
7060.0,-0.6062573770535847,3.803223287131215,1.3451051017623437,-26.21723221670629,27.32735258141812,-31.13003691247248
7080.0,0.4786675055056044,11.213035199634229,-2.630962334139245,11.43083129001213,-13.042863788256074,-14.134126283728218
7100.0,-0.8417476774681628,11.506808580634136,0.9162776528615131,-4.30549220713309,-5.906930759232566,24.91371474586321
7120.0,1.2057321461720212,10.163837770875263,4.605767740139442,-8.628064432970955,21.786567980920314,18.46646263982678
7140.0,0.0751705371696797,11.080869402731562,-4.901196359240473,22.898650098049774,-27.011716798251808,-25.19399443273674
7160.0,-2.3392532212157717,3.7328053104410364,0.6706416643651327,-27.004140747741143,14.171054149014608,-20.357304742960483
7180.0,5.057117421669771,16.587403935640502,2.0495117956924163,40.458666449255865,0.04675637085449047,19.456740301967383
7200.0,-6.947569332248673,7.090305855990948,-1.1830483840674413,-35.65568793285814,-23.00015222275175,25.856236308909793
7220.0,6.724648584173398,12.697415583711905,2.583796210521906,28.686449282233827,24.282876080989034,-19.702171803298008
7240.0,-4.395407041603507,4.7092430710588715,-3.894811497408559,-21.86668301861289,-12.206340052895154,-24.861511478704212
7260.0,0.5703773071508946,11.892880850178962,0.7340821849921887,10.509610770814213,-2.0171168728650937,13.65431204082534
7280.0,2.8581801107217375,12.945518686118549,4.616042386757979,4.275920762575897,16.885045711376293,28.642377576741456
7300.0,-5.107692094041764,6.517635806475145,-3.6934744933886234,-16.281310799078412,-25.645379313607236,-8.500369629484767
7320.0,5.758127294533724,11.051179763142477,0.6416045330533249,30.483813425720026,15.621919509277934,-28.89103989571032
7340.0,-4.284645453574264,5.311168985479167,0.1781183316175201,-34.788686537875044,-4.516693319109821,2.6225532593792193
7360.0,2.54893891804737,17.37916041373863,-0.49467899912312663,37.87406874297275,-16.62452664981038,31.636172881152763
7380.0,-1.134288792111034,5.174912778908455,3.4246444548143447,-32.7748945046172,23.555771697118228,-1.7059834903423723
7400.0,0.8897080148812655,11.07615289165951,-4.566652190807233,24.344323090723492,-14.7742949584621,-32.23083415833783
7420.0,-1.4663720404796825,7.473547984086059,0.10260536504785998,-11.41203168316746,0.8464126967770347,-1.7448709320311413
7440.0,1.880444261633776,12.664671007676652,4.442797155276995,0.5483065011001935,12.318914881990732,25.54161658384448
7460.0,-1.489643645921829,12.596679232448139,-2.9789957179262063,12.139602845614567,-24.69152523337362,10.564446325308225
7480.0,-0.679197738534496,3.8966683825061983,0.8083533201809348,-22.58569913328368,20.683559046955082,-27.3882522929057
7500.0,3.0468977629897562,13.187329124946407,-1.528283668848027,31.75900036028818,-5.618348190000983,-10.639147489211211
7520.0,-6.10979335272617,7.290228657016835,-0.19311595623391853,-39.495366456920664,-16.476094505684358,25.93652165107295
7540.0,7.168034581020946,16.119923073020363,4.917407205653396,33.04259629171915,23.571219157601597,15.831854981758456
7560.0,-6.228961086789443,3.9629023400953667,-4.702736591907098,-28.182060560835232,-17.512193467686345,-24.769899046641306
7580.0,3.438065664979692,11.131103112425203,-0.4725695641660551,21.52607414174172,8.39138098803684,-23.13431232968506
7600.0,0.5122118462907452,10.727961162353193,3.0985999108332347,-8.842198981336182,6.402219632556201,22.136971217003122
7620.0,-3.4704930935750564,10.257068163458907,-1.3521176645086532,-4.752516421298586,-26.55386379099221,22.347539518653893
7640.0,4.9755866624642255,10.638311042409734,1.9566938185599394,17.133761047040192,25.175083124118483,-18.482094943730537
7660.0,-4.921306354452802,3.877470174433361,-3.2255641581823284,-25.542108462856007,-7.926648984906177,-22.843136198948127
7680.0,3.1866523916875718,15.529270098942543,-0.30819335730745495,33.553141515755165,-5.663747763437659,12.909640829482
7700.0,-1.5668235657574887,7.256562102366806,5.599219237975368,-35.85862314628038,22.73273659595979,29.104020755992188
7720.0,1.5948138329583963,13.892009156385788,-4.0911054449860895,30.456932642101354,-27.285716348870213,-5.876691369537662
7740.0,-1.612323932229494,3.9878636503766343,-0.27274928451734665,-22.33491799268062,13.333530930296359,-27.346993497069956
7760.0,2.521453247232435,12.26179224063285,1.406916518456872,14.290847233154789,5.990595183958204,4.532076977016038
7780.0,-2.6535368435762057,12.267631798047566,-1.2197459774647736,-1.7996309954642704,-21.29673405161593,31.68113615322577
7800.0,1.3020670462141992,7.825525659382839,3.58903429327717,-12.166292539086637,23.395197429549707,-1.92506845267383
7820.0,1.2950546195543262,10.69517933682206,-4.187623079367682,20.273299404449226,-16.078814882086068,-32.97212791787899
7840.0,-4.520644743536515,5.096366527382253,-0.7310538489222291,-32.581469880509644,-6.44104317402568,-2.8096521055723893
7860.0,7.225482166457694,17.285883029488872,4.70789386448088,33.658471862629355,17.83877175352209,29.12654669001413
7880.0,-7.071524639531463,5.737193113409024,-2.9612944621300636,-34.49232396504156,-26.233003581161167,5.6879081003757985
7900.0,5.188764916783193,11.175714992580414,0.2223129072463369,27.755834706408656,13.715453992377203,-27.89019494643228
7920.0,-2.2168944662073042,6.259247504324935,-0.5542366213749776,-19.088064799360687,3.0828760189089097,-10.933503881046867
7940.0,-1.3412438690044501,13.074879929900945,-0.7183707641861584,4.485843909975752,-16.514770531908734,25.339308262286202
7960.0,3.9158902715450976,11.774376153060452,4.490492017850362,5.294570119855262,24.652104819454827,13.817985002154478
7980.0,-4.218179205249736,4.86871080927224,-4.375729590654461,-16.692464936160345,-16.141204636836147,-25.85448929199984
8000.0,3.993898147884708,12.048145031783251,-1.176055743476109,29.846736591959658,0.3144543872898963,-19.662166317952185
8020.0,-2.260004513907112,6.940044031025125,3.766018940267124,-31.23479946404294,15.668895162554525,22.22471695290745
8040.0,1.5355593922956712,16.87141273895306,-2.064959941805332,34.378477806466215,-24.89253606937922,18.553618327443832
8060.0,-1.8015241221550677,3.851841389437206,1.7827411688201067,-31.301437587052927,18.301674323271396,-18.799555296730386
8080.0,2.8824644723790227,11.192560874838055,-1.5957538194638496,21.066398068459982,-2.581662336106383,-27.332898669455744
8100.0,-3.573295110070761,9.320176622124498,-1.5567365110082185,-11.443334674707602,-17.876466095028526,15.921587233684475
8120.0,2.5454753098784213,12.1101596710708,5.200420918079414,1.8441784305335216,22.346069019466157,27.325119116769475
8140.0,-0.9740305576977957,10.908207176175631,-3.71623936938311,17.290773618906982,-19.775168893769518,-11.766821837340126
8160.0,-2.1971018255647605,3.834219880860399,-1.3887372242452942,-21.987524950250126,5.3697627171695155,-31.29129865017792
8180.0,5.294761959868159,14.73795363711819,2.2546774322506757,31.014087852729485,10.22292385619601,9.223200415128337
8200.0,-7.269082161704875,7.692524828140105,-1.2753431306664753,-37.2054573801966,-26.106034393129693,28.25832727483152
8220.0,7.336210283766778,14.173114918329754,2.8851976362972667,34.060738381084164,23.103045279765162,-3.246902076809836
8240.0,-4.616913831498274,3.1950035061238973,-3.0684024683262603,-27.43045757873069,-4.3968046573558395,-28.450770483967965
8260.0,1.3246975389443236,12.07099890026229,-1.6856994273336439,17.554164154658626,-13.125520217599519,-0.4724682291503146
8280.0,2.2498827647537465,11.504821737107745,5.012863253752304,-3.5679643325770174,23.3973629999911,29.635254188540568
8300.0,-3.5223713778425396,9.036823445144513,-2.647809607353549,-8.19497859202448,-23.375911686078894,7.817839466932634
8320.0,3.3204325723786385,10.449261808156079,-0.33307139919701534,19.187157343225778,13.7766918699164,-28.386531954119217
8340.0,-2.9763709026815675,4.661254060049037,0.7656679045044213,-26.620696894518236,7.39810876737998,-10.798302709860064
8360.0,1.6487278421156273,16.919746633261227,-1.3755859437655185,30.6651292215684,-20.694303423228376,24.909175381929696
8380.0,-1.731245786348318,5.933511074847603,4.523350663879387,-33.88721197102969,21.204714938682134,17.486878212381235
8400.0,2.2671079131786644,11.850872802526323,-3.015752473452164,26.788727074288268,-9.92996365751739,-24.049867988746637
8420.0,-3.5083860251195587,5.089959708384298,-2.0879474124965154,-25.862700975117935,-9.450090557181023,-19.012856902187586
8440.0,4.051609309954957,13.538252675437949,4.42912155892444,10.536076598440253,24.44876946920244,22.706387688436312
8460.0,-2.692001958180349,11.801964382781446,-1.8171506727699622,2.6845681465526328,-25.92436652467449,22.459273544784676
8480.0,-0.08899085206970421,6.233754747938199,0.903187991604907,-10.49870309914757,12.722545391273805,-16.560000397754578
8500.0,3.93138524376939,11.434477631700004,-0.6064209983732962,27.967496085662734,4.300202100979278,-23.993317833308414
8520.0,-6.816877381053371,6.792406539492486,-1.862036365661056,-30.57855657161566,-21.0327271350983,15.183059484578266
8540.0,7.23269463052207,16.848450861973753,5.286314855854087,33.155238817061004,25.55768264171512,26.987207488636034
8560.0,-6.172123000478981,4.044347990218446,-3.5667311355553286,-36.62139017329204,-14.577542877687243,-12.142981709434267
8580.0,3.173162540960339,11.247982897635364,-2.1272717588733085,28.015659603866343,-2.8839360821219406,-27.752081688306916
8600.0,0.13228943719036884,7.775668494502689,3.1460171426086063,-19.444937396160025,22.940574001383972,12.541092845880659
8620.0,-2.4604590245400577,13.125926820930694,-1.452300091617427,4.106107470448735,-27.739665686502573,31.420363442071704
8640.0,2.7147548394768766,10.541403669604923,2.458160824893821,11.6285393795248,16.101427765539405,-5.643851876471395
8660.0,-2.6293838638670284,4.600078746547208,-2.3178325578227064,-21.950164636993165,1.6994615215995343,-27.8669590033183
8680.0,1.6693258937918058,14.193156258553575,-2.7185653783147994,32.19906940699,-18.578385912428118,3.33509139071704
8700.0,-1.3709391398442634,7.372082378000334,5.319507981490407,-35.57688803630277,20.639692657529153,30.27444942816169
8720.0,2.1580318513787886,15.021088994611251,-2.2228118538355943,36.6736220121805,-19.163526098565484,3.757503126312097
8740.0,-3.3032132976376203,3.242939213635295,-1.6078841032027382,-32.68296178827333,4.346757015888288,-26.77064336447273
8760.0,4.613238139337742,12.142136404946177,1.7893635063749918,20.348490246735786,12.514836235814592,-9.94149670459416
8780.0,-4.216987874349437,10.938709762280174,-1.8557582494734857,-13.289118557744235,-27.582056898207906,25.30188570874868
8800.0,2.363373734323979,10.233592969706233,3.6853789233138157,-0.4842159580012195,21.3591380271489,11.654401000042919
8820.0,1.3274836028741699,9.887859702386107,-2.47938522833255,15.166269270597647,-4.137819525761165,-23.142503290343996
8840.0,-4.913222054125666,4.9687653543782355,-2.797709050545474,-27.09527248539785,-14.450803446480675,-19.646175642995587
8860.0,7.103930348780061,16.354605938699237,5.039387924507322,33.276961728025285,26.52189590201206,22.83723116651424
8880.0,-7.074156151647525,6.297816451175352,-1.6353643656124262,-35.54651925932026,-20.166468304153625,18.664901432520917
8900.0,4.872855297790593,12.94283781515353,-0.35530796545800586,26.82469571143155,8.146149168356006,-21.57928536542193
8920.0,-2.359860937711447,4.087195554950486,0.12464420838706444,-24.629360598171722,13.092877312760493,-20.193801889982165
8940.0,-0.7225844542814148,13.622652676136564,-2.1276621712042894,13.236928160650823,-20.597350886487053,18.000196462339446
8960.0,2.1127224820876824,11.15008151109585,5.031325168444049,-3.9781086395424925,19.77767222242909,27.974402649787315
8980.0,-2.549340079441279,7.217740183573946,-2.248641622718446,-6.346347664224893,-9.205076659132464,-12.430406914326856
9000.0,1.854866159031285,10.272683549327441,-3.3212408644891993,20.107155771125186,-8.418759810584978,-26.837715384546605
9020.0,-1.2304030380921374,6.4619972703056385,3.522689706129322,-32.35799550988807,23.276359339014743,5.759733338732941
9040.0,1.5486936378142016,17.17304478063271,-1.5041148563421753,33.032264752444924,-21.350106820599386,26.497436349414603
9060.0,-2.787990404939177,4.339774463102465,1.4109780739843325,-34.887032133979204,16.478241633328963,-6.1861173363768875
9080.0,4.800958944934344,11.493100739948911,-0.935546441752318,30.880732666585928,8.030881789507667,-32.60225540155427
9100.0,-4.9400731995731215,7.203173619188445,-2.5370690344996505,-19.47365841415328,-19.419141223612623,1.430560878764017
9120.0,4.035681969051516,13.36188980695213,5.509944900815743,9.90419545534463,26.4141022942336,30.461553107249703
9140.0,-1.3706214321663932,10.353631015151487,-1.5989831157121128,6.4858065254110535,-17.58684811282509,1.9881289309164552
9160.0,-2.5031358195657973,5.18130885533969,-2.7693873525885713,-17.576571447188787,-5.575068183686018,-32.03176433427253
9180.0,5.859120824372314,12.689617785426694,2.4159927164294155,26.68746152010013,19.965154998424115,-8.106821327595927
9200.0,-6.920824730300623,7.419094109143675,-1.81747682859142,-32.748341070310865,-26.20708178136916,29.011834468764345
9220.0,6.431509193454706,15.834335941737942,2.8711500859578627,34.40106528730311,16.524507392052683,8.689076662274472
9240.0,-3.6109693575524306,3.0151056460950567,-1.5934521071664742,-33.57662657734132,-0.0450379091677684,-25.53275838466127
9260.0,1.0866565942400925,12.388161826030645,-3.7488877282743243,25.98434655946945,-18.011231879779217,-12.840820749685783
9280.0,1.4349016183634011,10.015867125499184,4.846846332471046,-12.46733478000088,22.78795062612504,22.50084695870254
9300.0,-1.6297265507203194,11.594908475814421,-0.7718556669745381,5.183764170666651,-18.497799794341525,18.75367025758275
9320.0,1.729049671331448,9.493956997590162,-1.3238426974319155,6.400509549004481,2.3828044350975297,-19.553505999733652
9340.0,-0.6610291211123892,4.943074217853988,1.1675393818850002,-23.00377237662967,15.488745839537977,-23.38389591229823
9360.0,0.7231776565683754,15.776941189612934,-2.35495387855811,26.22510592347258,-24.62310730709925,15.828885391638401
9380.0,-2.2922902641807488,7.2412497235799425,4.382869093331506,-34.309857076722786,19.877185281245872,24.59535168180276
9400.0,3.8458692054107946,13.768509389425574,-1.0234069149471199,33.859052076600136,-4.151007737725655,-12.934357537800542
9420.0,-5.185161863468322,3.3552364661863305,-3.734829111610744,-30.28190054587472,-15.359111951306565,-27.520367992526225
9440.0,5.3115706585799645,13.367954655377718,4.471295224639943,21.664621596410353,25.987037484691264,10.39033093734374
9460.0,-3.5931609398136706,11.086648277118442,-0.9529936892732741,-6.409529821122007,-20.45281588559121,27.64212606149738
9480.0,-0.13504426677264791,8.773105986679825,0.20885278702930968,-5.976101856804047,6.076625059002657,-7.224305223890941
9500.0,3.9487091571260287,9.770994135456561,0.19720030430953045,19.324993200832537,13.59203796847612,-25.59428873210404
9520.0,-6.487505608019216,6.176220792233278,-3.269680174977941,-27.45287861245594,-25.85895718100838,5.146499581448269
9540.0,6.932136136010714,17.268129146081762,5.0141801175542815,35.084667287738924,21.77010389198744,32.90847758746517
9560.0,-5.309926282889612,5.049057335940893,-1.044999448748045,-33.701109150311105,-6.869768651885032,-1.0085958544746723
9580.0,2.600767727999582,11.531550676655343,-3.1643306038761967,31.399917833409262,-12.048944648445682,-30.52616305362299
9600.0,-0.6018392815997845,6.135640390551999,2.7536245618201587,-29.366432905133543,24.549931199668496,-5.629126971960798
9620.0,-0.6453450241038265,14.317934641188806,-1.4693722433589314,9.437163441533254,-24.889418568273555,30.04421122491562
9640.0,1.0825896161927,10.328720777154155,1.8191350488706972,0.1535225263332769,4.712228817212357,6.0220634214994835
9660.0,-0.4485427024917275,5.573145857240142,-0.44201190000154433,-13.573208973775523,10.707929000533383,-29.663549146048343
9680.0,0.31142186992335397,12.267434840113747,-3.7981366305828264,21.53804934073095,-20.540403677172257,-14.613118972983386
9700.0,-1.0421305835929346,7.927388360947971,5.390158494800961,-27.96794508160762,26.111198857988946,24.145172203078488
9720.0,2.683066456811855,15.853040362650898,-0.5283410966676785,38.32668643690867,-10.794027653472982,17.723106030138354
9740.0,-5.064236567677505,2.907914430510514,-2.506663375070263,-29.250167163071154,-9.039374361649635,-22.612337420415724
9760.0,5.935543445687765,12.41458310959938,1.263393842956912,27.865016974687016,21.299392792889208,-22.491490496920733
9780.0,-5.072852880920256,8.699213189285889,-2.0250760841186115,-14.261736537371943,-26.07200047639025,21.22214756768097
9800.0,2.4438384510862643,13.023158919816563,3.3808741588683864,6.6806258768496605,13.306836200098585,23.15495445422423
9820.0,1.1603634456115701,9.26829138836343,-0.20674273975302387,5.576524771146555,5.477829291062619,-13.680689676053234
9840.0,-4.874544872327329,5.027267867998562,-4.799480006363666,-15.87872888996051,-19.110806685542453,-27.668074765286416
9860.0,6.436664748611745,14.87511196635482,4.1307894038218835,26.52781117715435,25.602009801734894,10.264428651676056
9880.0,-5.95239072134377,7.401242040031763,0.04779514986669753,-32.10851107452525,-18.412844060738763,26.2668088061291
9900.0,4.163660498421108,14.053262837176565,-0.8112102986728562,35.03959315366148,-5.217327939181054,-9.31124833419236
9920.0,-1.6054858399860379,2.6346973885266074,0.6618705313444582,-29.798745117185362,18.18221091116105,-26.17509944654077
9940.0,0.013720314353704889,13.374786510521123,-3.482519526053716,22.76544693462681,-26.03274890191122,-0.0745731483949088
9960.0,0.5124476922901896,10.719846183936863,4.758796590453021,-15.47234353440949,17.286360780894952,27.671720569180497
9980.0,-0.19435937124339428,9.520472524795649,0.09345990762388623,0.4554236220770788,2.9366563605105354,-0.016338355930068674
