timestamp,ax,ay,az,gx,gy,gz
0.0,0.27791847435767925,9.978715445246776,0.09981948526531109,0.06901089603408118,0.6545685722190779,-0.010176256404848488
20.0,-0.5794913843485313,9.18967014261353,-4.291350744157425,9.926808013752195,-15.550855322316302,-27.960825245096775
40.0,-0.09172919102849042,5.811824365418403,3.0444075079790953,-24.49993430800676,25.070599793830567,-4.553758541182977
60.0,1.8043469379787669,16.768863607882356,-0.7029243473733683,29.94480646643378,-16.712817583753584,29.03458730089802
80.0,-4.0629745883835815,5.516767114153216,0.7588027021101217,-32.69852502725708,2.902818750268313,10.583956582674725
100.0,5.9149765925978,12.284979932250474,0.41784450255802563,35.09776313159904,14.901113975869805,-28.934209916901334
120.0,-6.804169088671213,4.972826949604363,-3.7434860938870056,-30.189934986808023,-29.144389669060292,-13.409930500433653
140.0,4.97722918039294,14.509075908585004,4.3892359153353055,20.297729544790116,23.673980563319443,27.3000061214406
160.0,-1.0499893733579357,10.428594642646587,0.3409814966841458,-3.284386619737899,-6.538025659431943,14.761861702201681
180.0,-2.332837839869958,6.530831670260394,-3.662337722357474,-4.80121046135519,-13.71613145946606,-26.050340750949157
200.0,4.766586085521944,10.927051671104591,2.2321921484474627,19.810577733361203,25.261604963854168,-24.79144975171583
220.0,-6.153229168597201,7.027764922849251,-1.6891670781171428,-28.745828712316744,-21.7555520677806,22.008935435303307
240.0,5.424523793143334,16.357330690156697,2.6063018444334434,34.361407231414084,5.924557632968096,22.93842999602441
260.0,-3.0845308778044385,3.679312342704814,0.6442496424173173,-33.38956511984362,12.328644605209007,-17.266910941945856
280.0,1.3344145453661453,12.224457052445732,-4.960870449666707,30.689874558499735,-24.14696639023533,-25.54928100016283
300.0,-0.24389707312433123,7.844755618452673,3.986269511037303,-18.514167747148527,19.658625187684244,10.163514080155643
320.0,0.39410273058441825,13.706854987247397,0.6404801543077367,14.652282490883742,-8.865756210294203,30.819664916399596
340.0,-0.966696056020177,8.84115274650466,-2.129091422354837,-1.1334706346811458,-11.261342490152426,-9.829423030629165
360.0,0.7539717923660132,5.208071686140482,1.1035292560381103,-12.99032212427313,19.095963251437297,-27.162399255021278
380.0,0.11221860274029888,13.84593655944058,-2.7769740477465517,26.796722493696905,-25.40311786251087,3.338647155966408
400.0,-2.7450562201913575,7.950084155717346,3.5916166249669645,-31.69023529857656,9.250540046127114,26.41835969878607
420.0,5.2029088565570625,14.781122574766602,0.6929239473013517,30.875184768141196,4.7457348069964125,0.7651422805626451
440.0,-7.135209326699206,2.7149382471443158,-4.64336425779468,-31.461050026649175,-20.312657227843072,-30.625220342776423
460.0,6.20254174398191,13.364749427981106,3.1365944964261274,29.87988274091263,26.517749755844196,-1.1477235969695079
480.0,-3.83069024690708,10.012305185437054,0.07792291281783097,-15.952612086019515,-14.239126821443868,25.15796949054113
500.0,-0.1468629386717538,11.386983815082266,-0.18617856051220666,1.7981151661444876,-1.8523965661611976,9.73048317773636
520.0,3.9039652760268,8.635898990210563,0.669756096847921,9.18078597096431,21.943194029114053,-25.065135760129124
540.0,-5.484823284618515,5.898717092475663,-3.868776477845334,-18.755038420621233,-25.736601769844512,-10.191384447128362
560.0,5.686283529801658,15.948083298665411,4.080895154142228,29.13741849784545,17.37441927616712,26.83829939832691
580.0,-4.162586258591813,6.03847562065021,0.9748672890419363,-36.695175383734146,4.162058931496707,14.383067108667252
600.0,1.7797784311589262,12.415814714697682,-4.772777221107199,35.83003266703372,-18.591082554928303,-24.20728206381765
620.0,-1.1310467059074638,3.9236598424706615,2.0780292616532487,-28.874751769768697,23.65969192979515,-18.91921481424516
640.0,0.8348491969000518,14.882102841835819,-0.9672062133996011,20.675910261510285,-19.864748426566152,21.031642372551172
660.0,-1.6227896711481486,10.019824967272054,1.0321018495478753,-7.8396424368064554,1.2590367382123273,22.334734219554147
680.0,1.5747392147163657,8.169250230171924,0.9809383251827372,-2.588756106340845,17.926039070990885,-18.85815535017013
700.0,-0.9993931422797764,9.939568958748648,-5.210598053933907,15.31123472926909,-27.733256040019967,-24.834401705497186
720.0,-1.066269964194673,7.254933667005974,3.9698844899826597,-27.28996424693392,18.619112080397343,15.410359515549276
740.0,3.8484843341177077,16.393042174379698,1.474375701408334,33.69927771120706,-1.4130056226801777,27.54827465550528
760.0,-6.349610543276511,4.335131553899928,-2.647065860355201,-34.509532276282606,-16.165430762159797,-7.504100350708619
780.0,7.161163807236869,12.238854061803025,1.6112551280769796,33.839072671524676,26.670417995376386,-26.50324438836972
800.0,-5.926991366154628,6.417704123831171,-2.262692074848366,-26.42847604826866,-18.32286957316406,5.643844870931962
820.0,2.6848918964693556,14.112341038977151,2.511297502321772,13.378091917997448,5.77196153605759,30.027635150521874
840.0,1.0390443524592632,9.136962393373478,1.7058108084725476,-0.14228524318347802,17.27726820400637,-3.530992289330512
860.0,-3.7971797869764736,6.0868108150247515,-5.358758981765757,-8.489596916427804,-25.60506135933098,-30.653178948243895
880.0,5.074231021353772,13.127398237088531,3.0702306115043,19.83821389377883,21.58850332841638,2.862472120971051
900.0,-4.242745141248326,7.976790702066821,1.1262764362310342,-28.87519196961934,-9.86359573177489,30.64027831310776
920.0,3.0809575554296575,15.513585028243808,-1.5317371689698804,34.68894385108836,-11.844495399297141,3.619734656749942
940.0,-1.4225920693234135,2.579863197853709,1.3077530714556733,-37.91375147994064,21.527367673307413,-30.34295397300119
960.0,1.2585000122919032,13.276680910267867,-3.6824220284732267,28.96801878070009,-25.5839444816667,-11.901973590268298
980.0,-1.6898543250370965,9.30673514009708,3.1254407753744826,-22.159400919670492,8.24888475078894,26.806393888191483
1000.0,2.3558696137004986,12.466149305699382,2.0699814991856083,7.7836759913169296,10.941056451802218,18.136423163216328
1020.0,-2.445373054786504,8.11894218722497,-4.662862577723427,3.8847843846901573,-23.916587026743393,-22.79197903855247
1040.0,0.9496323892234075,5.993867998488742,2.072912510702653,-13.69408369212047,23.91970907525064,-19.141549669486103
1060.0,2.6492846886871626,15.02084050023211,-0.4298411568477325,23.558885831341666,-8.56293686831806,22.670655495347724
1080.0,-5.098495219431608,7.3887852778726355,0.45281737575767805,-29.612531497963776,-7.948845013925831,19.40421397464107
1100.0,7.188252311854013,13.160255030848825,1.7553617324836017,29.447572049168954,20.620868374207657,-17.58346673391861
1120.0,-7.044574169429113,3.2097513863209275,-4.904857205902241,-33.924802540577545,-24.124865454564194,-23.457427813293325
1140.0,4.85436112316095,14.814794360362669,2.9239015973557323,26.07348941240665,13.39801012299974,18.130113771529263
1160.0,-1.3242480125602736,9.922613187635854,2.417919606466933,-14.680578948847568,8.569455905970184,25.500431383812206
1180.0,-1.73427008238496,9.08310855833123,-3.7364592881063245,2.7567243700750876,-23.676627959314153,-10.880503427152687
1200.0,3.8311883777050437,8.75379771271382,1.7619071362657308,12.03950259430886,25.77685044719957,-25.30571951388506
1220.0,-4.4247064803422855,7.657000250472343,-1.4636195408090147,-20.455668547306527,-12.456813975245952,11.416308787950669
1240.0,3.924505291936177,16.31786034828768,1.588300408003777,29.168479959589064,-4.529478591028276,27.632379677060463
1260.0,-1.9313976040122298,4.6075304060650115,2.713572248142083,-36.29613881461238,20.10576544545928,-8.401125896422494
1280.0,1.535893371842112,12.114142945455,-5.339062359435157,30.501114965024662,-26.09731999048931,-28.778732263404763
1300.0,-1.8974989295161846,5.4964263464739,2.7272444919717778,-28.926122264495447,14.527226849222032,-2.4817520886175815
1320.0,2.4777530610168603,14.729687059285563,1.9907689883337025,19.79310065729046,-0.1082835403257294,34.717296771542834
1340.0,-3.343970283703073,8.98152016184537,-1.8667995988448016,-5.235408970722489,-13.723288289812839,3.5437901581597377
1360.0,2.1623968506545306,6.701124460439461,1.4451575262473182,-4.597416592980835,27.790141226153565,-30.106793185328666
1380.0,-0.4161280003945237,11.42906061894847,-2.943298976926672,17.412247354456305,-15.097452067230467,-10.543410233129428
1400.0,-3.1157866429748107,8.248357289847808,2.418521922828223,-24.622286321146934,4.914363009302013,29.8678911298875
1420.0,5.891118668514415,15.794539427343434,2.7832126461771916,31.936070873633405,13.873811475021833,14.181690494375983
1440.0,-7.646577653142269,3.0515432428844282,-4.876669321831017,-35.14854103493276,-23.305169514296164,-25.752898467705766
1460.0,6.698902913282564,13.340643568588387,1.7399167003247549,29.24297018951916,19.27196274702448,-15.254816053075416
1480.0,-3.681558081918211,8.331193134736768,0.9895603979811377,-25.65974409229218,-6.618891859899605,23.746911306285526
1500.0,0.6451256966035754,13.279373715246868,-0.40107252593697507,13.111023878022099,-14.049401490223453,19.564731980618905
1520.0,2.386373673081992,7.78441764740661,1.5958505509471674,-3.7056372215981837,25.0414243158095,-21.806129944226708
1540.0,-4.123467146729616,6.304917507738453,-4.668613698590689,-12.255936979007762,-19.269988047876044,-21.71653383678729
1560.0,3.6723927823907054,14.154243007159044,2.311153698166162,21.112561371352417,7.612938313582049,15.796985030419929
1580.0,-2.748139424982395,7.682005352341638,3.132671292639712,-30.659038012991793,13.53273746851735,26.820729681347377
1600.0,1.8751790345903752,13.66549685751215,-4.320806996116916,30.01753092890977,-23.093223781694462,-12.882760605166355
1620.0,-1.7886217758879936,2.7481105149442353,1.1139682075351895,-33.54862153388725,25.486413785847727,-28.827050907436657
1640.0,2.765666779612378,15.03255680818373,-0.4281182280943928,29.518486836819676,-14.641192528179856,10.484863182272282
1660.0,-3.5848265243394577,9.377991090434977,0.44186107136406505,-21.09834447144589,-9.68571732434544,26.175416985799632
1680.0,4.12616509110447,10.424943255835277,2.8718074002485077,6.405460730973303,23.150585239492035,-4.954333832678063
1700.0,-2.370664070961076,8.06688618515597,-5.416145164049961,7.209117646901351,-24.24786976549826,-29.120493470411315
1720.0,-1.0977906303212248,7.278972960898318,1.6346398300712233,-19.855039246229552,11.283381278391447,2.9127081240532045
1740.0,4.465760743557084,16.45748399185195,2.893298841911179,25.58944232183576,5.05253666210304,31.513305159079696
1760.0,-6.867801449517074,5.600494026819682,-3.243168631667734,-33.13754862252354,-21.91558308837238,0.35808647610476285
1780.0,6.995051766688191,12.148289969532343,1.4443567857670374,34.24999346791746,26.570042836712144,-27.828355022439396
1800.0,-5.444553864369969,4.981586604827545,-1.932073167174078,-32.870697378080955,-13.615131231591077,-5.571794312864133
1820.0,2.820205467476179,15.656937937632598,1.2335221697845828,25.915629935946782,-4.997512849019045,29.395092520061866
1840.0,0.5944135397389819,9.066982922851025,3.403150052126026,-12.796166674712241,18.312310032705003,10.558898535590487
1860.0,-2.9516648764400597,7.590561752252216,-5.170251081532479,-3.313831425202162,-24.28401940371835,-25.141163704442434
1880.0,3.1073971815102106,9.977963433305641,1.1644257184381148,14.689718779684876,13.166739028027735,-14.25117113744774
1900.0,-2.2759703713786084,8.52298899560351,1.56158615430278,-25.132822613365818,5.600448019044449,25.63518610736307
1920.0,1.814278188114452,15.782022773260106,-1.3712459824294145,32.89821347919531,-18.979129510455703,20.13027360927023
1940.0,-1.3620329218905132,3.053763928851422,1.9615923585204018,-32.47387331241112,25.466421430211277,-22.564266367578604
1960.0,2.1775128578689973,12.98509641904613,-3.7163058658839456,31.64428912077303,-19.580163293099616,-22.003887933820362
1980.0,-3.735430499354306,7.513656199637762,1.2674133548623614,-31.849526840070684,-1.0024428739726168,20.195449106221307
2000.0,4.37573945592678,14.65192121161378,3.891518068170527,19.24890373594783,16.169288591291608,20.922599486090938
2020.0,-3.907382236974078,7.657732522175637,-4.576616834182868,-8.085281526844579,-20.212608143990725,-12.865039220460481
2040.0,1.1673644754433379,6.650763592122279,0.7649804966162108,-4.488619890288978,17.786036534133405,-28.306778106646384
2060.0,2.2719655242539103,13.649296578060326,0.5066368167499724,19.481858191202473,0.24190576920463047,12.481466028035804
2080.0,-5.618045520724365,8.366908223068409,-0.23499222266775965,-32.690244531160886,-16.81307261776871,26.946741689291496
2100.0,7.560038575274254,14.156900280115904,2.946839693169911,34.099837018797224,27.84189097143253,-8.607597380389665
2120.0,-6.485765923603983,2.824499551894795,-4.8528169987942595,-36.27722827652384,-22.621620314027734,-27.896524213717154
2140.0,4.401823382127456,14.509899213875089,0.5057469346594341,32.87521309117512,3.4018807045497175,3.988469048016535
2160.0,-1.4717414782982856,8.80002283376766,3.7468448768095493,-20.38895329060986,15.719324009675415,28.370898354106323
2180.0,-1.4516508764676574,11.759375379587492,-3.1668140312742104,11.567022590001182,-24.39545049195294,-1.2462946531383416
2200.0,2.5979689869012828,7.215233359913261,1.419848536358232,-0.030828496268464844,21.307262018356802,-29.782376352255945
2220.0,-2.7123285574107596,7.545602656040974,-1.4053600713842724,-14.69246626245994,-3.3421836787127965,-7.149724082934063
2240.0,1.6144843202821249,15.405536446652398,0.5659741836446726,26.847479287334437,-16.724590011241773,30.2439766065441
2260.0,-1.081138641129961,6.157757945914022,3.41221612896418,-34.61992216902404,21.784324420213082,8.352710589018407
2280.0,1.9215940817362036,12.636175644771518,-5.065810137711223,34.90475761913711,-22.015146226315707,-29.822596722065565
2300.0,-3.158753428210805,4.159866417588416,0.18174046368362787,-35.91532224544126,10.905121921979248,-16.04655181962669
2320.0,4.93879581308002,15.716717414554182,3.3133049375705217,21.982853700391086,9.691380650150462,28.42300685478316
2340.0,-5.154998222590237,8.96704025860446,-1.9235796164781787,-16.73878861444892,-24.657936404453636,20.13367890367974
2360.0,3.4180128386710353,9.19183248190518,2.0382924955775286,3.061071369934918,22.592952283915523,-25.509379560243392
2380.0,-0.6752484252523867,9.07572935192721,-2.845251391728535,4.141099282454052,-10.529185376774054,-19.572526109009704
2400.0,-3.840799639782475,8.54382892588022,0.6146378219855624,-17.209200362715233,-7.9710420299014135,19.000044796093185
2420.0,6.474307038329611,16.074079725359937,4.5168543195428486,28.308133420223026,21.495683633230037,26.922895939223977
2440.0,-7.140740389530432,3.312915066655635,-4.722543871671935,-34.672181131165736,-21.83058557913857,-19.052921957070435
2460.0,5.90951094202564,12.66912929880167,0.12691692905116125,34.74948639784447,11.22445597558768,-28.329253215413388
2480.0,-3.084060353405314,6.602027832037279,1.5294176575015006,-30.197908800469147,4.621254593189387,13.197491067326956
2500.0,-0.0423158581968206,15.391832161571926,-1.0638153062066273,20.350910863711803,-24.638197432267567,28.309502257738625
2520.0,1.3472294498825903,7.492330126100299,2.607748258905048,-7.591973934002755,23.247199097301646,-7.266716983875659
2540.0,-1.6791910337808358,7.208226369050338,-4.103201218869909,-3.6719935423267893,-17.92764941587318,-30.65795494522472
2560.0,1.8018934924552348,12.021165985751015,0.22353516089164854,17.680353109886674,-2.1708726025338736,-0.903620183437952
2580.0,-1.053175275771338,8.580159810848714,4.759974451655646,-25.92758144832273,19.96874462532733,30.2914765051365
2600.0,1.0566384169197565,14.099970169380162,-3.353735528630532,30.260453304968756,-27.781653637852834,1.4386350870059723
2620.0,-2.2947436820056897,2.331259084301836,0.30125478990772336,-33.75288318732857,16.273741861225442,-30.576495255963305
2640.0,4.652003982893821,13.918751621213174,0.025036847792932304,31.92068404005937,1.8867715223084853,-2.0543088134285883
2660.0,-5.387771976865624,8.200946496569953,-0.40692923514045104,-28.35052350367568,-18.334509802590503,26.521070689776913
2680.0,5.047797763253852,12.60942423123985,4.227199045157042,13.17202146400436,28.53302044826634,11.265406769968841
2700.0,-2.674840604806154,6.9316436626212194,-4.438117737850306,-1.8065668901592598,-20.001760269440446,-30.572530950418727
2720.0,-1.0282032938107852,7.261942679103619,-0.5972245453154778,-12.226728774626205,2.5766326255241454,-11.511391532461166
2740.0,4.4507247694348795,14.874564084777171,4.012099963516172,18.2521064287828,12.745882011894093,28.542836031740283
2760.0,-6.642796853048936,7.083223867472525,-2.686114063491704,-28.958840614456232,-25.63321840200053,13.813377678875842
2780.0,6.707043293042781,12.91586032411789,0.9844903824784392,34.52789590960403,19.894406722721666,-21.966473365632908
2800.0,-5.297385268264713,3.2944656720111447,-1.994115427719914,-36.29075906996893,-2.697072806969311,-22.262716560955877
2820.0,2.1150848676952227,15.853392054941736,-0.6622851889983463,28.47056554703874,-14.774851321749292,23.99373215081517
2840.0,0.12535941588986926,8.526363722152055,4.81108310345253,-20.257714872679816,25.49949950422894,24.769169107298858
2860.0,-1.5466944238902651,9.933100864737705,-4.171206931729728,13.366219848460707,-19.459067867378824,-19.655388018714472
2880.0,0.7414257630916237,8.15451783230314,-0.6208838898003128,1.9608401205479966,5.8193701293193145,-26.10543296246531
2900.0,-0.6821707884454077,8.606768570448171,2.4995114977819566,-16.931132718869886,14.393465629887377,15.78879572214474
2920.0,0.3308099984537398,15.71923623356909,-1.9022167401557013,23.480120033242102,-24.079271989451367,29.635663042847703
2940.0,-1.3796704829312074,4.666493318253725,2.6470232848001523,-30.705419808249697,20.786174350236653,-4.3663589952000725
2960.0,3.7308581256711966,12.287639703388166,-3.5653872165914335,32.1356856141346,-8.374204066924253,-25.978954297290116
2980.0,-5.182072122121985,5.676616976740165,-0.8865483601813603,-32.5563331128644,-8.973725820361512,7.821802198687674
3000.0,6.339310536544568,15.614344538255882,5.064023023354463,28.073794592397945,20.028474988147014,28.785734975911943
3020.0,-4.908360152971871,7.3841711079442085,-3.6822980739592466,-15.175181071797047,-25.637969399264296,-2.4062290354384333
3040.0,1.51792910239278,7.546149438375766,-0.42186543520749936,0.36089489947793707,9.946655083528036,-31.1313522996404
3060.0,2.522350706375402,10.986623249872713,1.2049684261602736,10.910440717845546,10.298160451333008,0.13280545905749186
3080.0,-5.192824018411911,9.123844004223914,-1.13988028190034,-19.612316871637173,-17.34480420377169,32.08565916878911
3100.0,6.8602969973936405,14.649887414682341,3.664439059182836,30.546207595551838,23.89790743089844,5.04681204077885
3120.0,-5.974039443239125,2.4846756849966316,-3.738080071198823,-36.15580564718772,-11.260372739647229,-27.04461611520666
3140.0,3.7183219699584167,13.776264288576964,-1.3324266840386285,35.109064377901234,-4.641608407902333,-9.330889262497136
3160.0,-1.5824661044714672,7.9739523840222395,4.664689235714398,-27.023203404198814,22.162499370402863,24.80215390864937
3180.0,-0.4320962289035999,13.781877463618635,-2.5137149095322586,22.322998678447416,-25.32640637060676,16.240099283650128
3200.0,0.2734681765359228,6.273239268802397,0.7280753664151594,-9.814368535915554,16.62114758454879,-22.286570542357083
3220.0,-0.10422659234122376,7.82662503549073,-0.8192650820929401,-3.6919263568779686,2.8856574631053054,-16.687982515261844
3240.0,-0.05656215007429102,13.910426868256822,-1.1442938222805021,14.862883613890151,-19.01423664624468,22.83061624833613
3260.0,-0.7943303476794252,7.727778389246045,5.112999528552363,-28.77568088872459,26.68147439158186,19.306601324131186
3280.0,1.9879496841133149,13.283598278799596,-3.427598084641959,32.6921397007342,-16.031261383380023,-19.53892874652301
3300.0,-4.891801778647063,2.6045752904496284,-1.7451449762052076,-34.56685839430659,-1.4666746861359476,-26.453877208124588
3320.0,6.1799488193575955,15.574824547862931,3.536937057735159,27.837913280675274,19.641850725267062,13.134352829329938
3340.0,-6.63695235992899,8.46967609773407,-1.5922598303796784,-23.619974899063344,-27.098747120037384,28.50796031890296
3360.0,3.8514456545883173,10.963070344155684,1.9340346430217643,19.723733164939546,20.626723358084103,-12.052108328766915
3380.0,-0.27370615863647335,7.034700826837219,-2.551244432620346,-0.034355411276455916,-0.9609850353809175,-27.371192088827076
3400.0,-3.3007125985411867,8.850978828841543,-2.115942188170917,-10.06194196120707,-18.824094152654133,8.720377295993682
3420.0,5.754656236407461,15.35533629400423,5.605774105423002,22.422425530774092,25.312974224822685,27.759152981123435
3440.0,-6.097116904455017,4.791862698944883,-2.799388426245583,-29.82002697667391,-16.82684275653888,-5.189860976622015
3460.0,5.113001197631875,12.327974038486062,-1.1902804676596976,32.36837020531322,7.572200482307753,-29.572979758698484
3480.0,-2.733693451137088,5.033745306178204,2.0201131041952776,-37.19563030165235,13.506076435476192,3.2638626643820823
3500.0,0.7613444964995048,16.183672642679756,-1.6564569859145175,30.187372492070565,-27.065118727423112,30.2509100765397
3520.0,0.010537271421677244,7.4159931364887015,3.2462137344156967,-21.048724108732806,19.51275633441894,7.7581571571895545
3540.0,0.20853191088273243,8.404587199433259,-2.772052461930852,5.428055968693267,-7.90468348266358,-26.513567151917137
3560.0,-1.1082349873030688,9.593218693656244,-2.6670603700193163,4.7122243452595445,-10.914965182060707,-6.908314068226071
3580.0,0.5004824909080953,9.514744044506964,5.178475876911281,-14.333380717100454,26.527956804155387,28.003424145762047
3600.0,0.9782351963464638,14.654639062179381,-2.36444935726369,25.854551281960564,-23.065875088567097,12.96798151265674
3620.0,-3.107576003659686,3.0664806102507836,-0.930801800883992,-33.739223647064186,7.772405859870819,-23.77756473008077
3640.0,5.445815766973057,13.627754597986527,0.03683102650449149,33.84502473112616,11.817315419301398,-21.395480401409365
3660.0,-7.1468427867939885,7.386706414262827,-1.4729052091551063,-31.676898937177643,-23.389653118473777,22.42395425194456
3680.0,6.0089094955469475,14.798963334686977,4.670245985598198,23.26771160296539,22.935620655722712,18.769576663571232
3700.0,-2.9482111637658845,5.904133991013603,-2.775133071790687,-10.60474250267757,-10.834435056754247,-19.29969360938645
3720.0,-0.7750594807839033,7.721651920771228,-2.904460153088496,4.9575136058204405,-7.319481690972021,-21.867424469250487
3740.0,4.108757729257353,12.54949353018738,4.162057611701836,13.235941185976124,22.76928955037275,23.66108837700866
3760.0,-5.516508389882285,8.8384189428656,-1.4508856595902537,-23.42524804632519,-23.755357784450986,22.722622555422983
3780.0,5.8473471914680655,13.131428867836902,0.8364254406491735,30.9516099050602,11.555367412475455,-14.195100281693085
3800.0,-3.598478754095665,2.2583657426353283,-0.7228889862141488,-34.22346228499557,8.101409479814986,-29.44617800546537
3820.0,1.4672102144372623,15.525567098594347,-1.9605188495037194,33.430012294863126,-20.241845609697982,8.80902300597329
3840.0,-0.7186618548045955,7.895119299107075,5.194126227777472,-32.08286395683372,24.766781030604758,27.889357041603144
3860.0,0.5038551393901373,11.995643986220312,-2.036659876695319,15.261958235053987,-15.029163209717733,-3.2826769504484963
3880.0,-1.3038374616605943,6.423020249667493,-2.682731539038065,-5.418493468397742,-2.620251438780558,-31.07675200562217
3900.0,1.6070501241902126,9.034989689894832,2.4617242834768085,-4.646155477317583,20.063716991722625,0.5741953945881796
3920.0,-0.554409415862069,15.094763851967382,-1.3460172663841887,17.13606800704484,-25.24168191469189,29.505735867756663
3940.0,-1.4744631358899927,5.860351979680501,2.314109838912638,-28.51259845640041,13.438763074647511,5.59558114132739
3960.0,4.294134899852126,12.160953607246462,-1.5322301796661946,34.368033881221976,-2.7280823343493017,-29.971502673782627
3980.0,-6.57513558808015,4.235257000053791,-2.8811017654617257,-33.81695884438623,-17.57880615168992,-4.986406125810353
4000.0,6.791588425054923,16.71062387292065,5.558841786452461,29.446554782441588,25.26972963369891,26.637250129394683
4020.0,-4.79397193055858,7.387484722250478,-1.6346239688019084,-25.726958454029333,-20.209205498044994,12.20656192680559
4040.0,1.82940563109994,9.475532684668055,-1.7858803449618184,15.235337236271846,-2.6199576101232855,-25.34400926520171
4060.0,2.1308878165614917,8.438588447688806,0.9613261158134077,-0.6593956165294522,15.682493116583222,-15.907292726981272
4080.0,-4.592174375596311,9.91093222447887,-1.9336730822417214,-14.961158510329922,-24.844385965641397,20.509697779640717
4100.0,5.602959055231866,15.120440066398764,3.9199804272421774,24.79514097120171,20.925352448769313,23.652971090769828
4120.0,-4.641812891421355,3.3645953908528634,-1.636751831391547,-32.16365184346027,-0.8845951022950316,-21.89536936463046
4140.0,2.719356499438494,12.955232694174873,-3.2746141510184223,37.972789942803985,-17.607316020873093,-23.53435456126064
4160.0,-1.454410931186925,6.685677017510163,4.848337908537077,-32.47672004574946,27.510472203945206,17.079275591863862
4180.0,0.9738256241057964,16.052240612373193,-1.27124631416097,27.630521499002533,-19.363727788715153,26.95259223906833
4200.0,-1.5889166692566865,5.936152759700921,-0.04748623742823929,-17.76794080949559,7.9290227064621925,-16.140414728497255
4220.0,1.9422160262322583,8.471063206254088,-0.16596055935933718,6.499623250752791,12.86743838903834,-27.712549486097213
4240.0,-2.084808918882656,11.688852651561724,-2.360881767852416,8.961344897747896,-24.69259024125742,10.784490662518847
4260.0,0.25025839411551815,9.7023807206083,4.838001807570361,-15.202072938076887,19.545701118646072,28.17154981338936
4280.0,2.687398741671459,13.379796120770695,-1.774594809890034,27.308965771317588,-9.198501945287873,-4.382847958263245
4300.0,-5.532223824253491,1.9379458497962716,-3.555341618710618,-32.75794070052726,-10.20868274016479,-30.436686836669235
4320.0,7.316065329931338,14.779854664816625,3.0775127172332684,35.65844751823694,25.823512123097146,-0.4473113422023616
4340.0,-6.643454511041869,7.664429518519929,-1.271153457622034,-29.017637846217657,-24.040333781418745,31.568731185936663
4360.0,4.392904323395321,13.110838910472975,1.9828278270932373,23.982545025965916,8.209750990979032,0.8234177089016987
4380.0,-0.4274843926082958,5.57432324732421,-0.38552088165500026,-11.890396205174039,5.119342452038806,-29.402230314350042
4400.0,-2.9854811299386586,9.08250187011482,-3.8508986708428594,-3.277787986631661,-21.75904649056647,-4.527604148992316
4420.0,4.6836456574817085,13.875016141121696,5.048313581958143,13.657919143340093,27.472484257560815,28.99310777440995
4440.0,-4.621651839338253,7.275065225966727,-1.4627160119110107,-24.449694694022504,-14.731894474418304,9.197356964532903
4460.0,3.1616666743798842,12.364422605119861,-2.691433315092303,31.174655968251695,-3.517829462330395,-26.539678945137315
4480.0,-2.0680395770020943,3.3253265926033504,2.06192424504373,-32.31931637428299,23.133005684635453,-12.08202464030245
4500.0,1.2542628453663482,16.954697835629318,-1.6686198736553686,34.81861660215876,-23.86797930213967,25.292513704317305
4520.0,-1.7148104973658123,7.4269800218422475,3.0691277464018936,-26.03187377701641,16.577809275932086,19.546776401006067
4540.0,3.0035045558602613,10.041538704567479,-0.9479496382697128,20.747630910081686,3.2951362799135917,-18.303162786614458
4560.0,-2.844518613488621,7.0711960507426666,-4.328141359281091,-4.5853818212945985,-20.58199029906109,-18.424067905070622
4580.0,1.9344365824962637,10.272535034444415,4.848051817733802,-10.192726919713618,24.650808363944257,21.28044099627003
4600.0,1.0718654088798478,14.749952411103166,-0.7131695373618174,20.408796046333972,-19.212795126334967,24.204987349525226
4620.0,-3.775494560287915,4.18207120638288,-1.2330808625418428,-26.931337141024983,-3.569069003026494,-18.40364758472323
4640.0,6.426350277564677,12.383909880791482,0.8492489837553336,28.110633895673452,17.713562157823564,-26.488908857623798
4660.0,-7.4816005534289065,5.9769166039761155,-2.554674008333679,-37.34418640289877,-21.017929428977986,7.492048212812265
4680.0,5.7628666174400385,16.368531106765104,4.428642921196202,30.079422577386698,19.577080046996873,29.983617693302904
4700.0,-2.9884013379678627,5.718927965541787,-0.7734785766871973,-23.245565970409732,-2.6145097973039917,-9.715254572873627
4720.0,-0.5535625539239679,8.768806762990764,-3.733791058068946,12.155349392515143,-17.573402373911343,-28.272726273492104
4740.0,3.3050658126732313,10.571436022357345,3.582501951016252,1.2794522243184592,26.465446501832982,1.323218503169144
4760.0,-4.329799906753369,10.313456044463457,-0.9853480933799846,-18.19119051480927,-19.3778923436843,30.72548518277871
4780.0,3.714901684331854,13.468629606366013,0.7026332067355214,22.36560949418146,1.4459140718644599,-0.9125137340364459
4800.0,-2.713149272960821,2.400688253174648,0.47023730323288804,-33.79647633709926,14.140908908398895,-32.26316277694817
4820.0,1.7324048530504725,14.52380892195419,-3.854926193339027,35.35803900458102,-24.597599402932097,-4.898118057951189
4840.0,-1.997268612007077,7.765747404849093,4.72399037027604,-33.07578733605294,23.927423005131676,27.99280452486482
4860.0,2.4337859570281197,14.30362940449968,-0.149928204292463,30.106132275182734,-5.841808746588555,7.2091677470839155
4880.0,-3.361875073805069,5.393130279153677,-3.608395117285168,-15.74021839891553,-13.827605977536724,-25.151500367388845
4900.0,3.2712922301243412,8.980153705969547,2.382369373935348,6.452860708954529,22.479685618474658,-10.496207698819937
4920.0,-1.4546161087069245,13.250766740609453,-1.5179930542029794,10.597156517792442,-19.255097254903703,24.366793222979496
4940.0,-1.3999031943103108,8.163258214927989,2.409244877946478,-22.907362932838346,6.9359201897868905,17.914262482915777
4960.0,5.000900003856885,12.318025947828431,-0.24552040123908855,31.985532315279777,10.75533600782209,-22.46502657315984
4980.0,-7.204993555870199,3.2271344232034447,-4.778559056198628,-34.362731573877795,-23.760796194530105,-17.788467287493905
5000.0,7.576396043186659,16.36871485326491,4.650698731584412,35.146977793650414,25.519823016106074,21.082833224070356
5020.0,-4.950760522696364,7.492590109920997,0.15380838724224755,-29.051204885262546,-6.7331468125818645,25.799947034644642
5040.0,1.7411008672940431,11.546426609010615,-2.2141209657332603,20.2219600892299,-6.904910354085494,-15.508043927420065
5060.0,1.1906658908713599,6.272524620503809,1.5434634090775528,-11.500588799433412,23.09477390317002,-25.321650095307284
5080.0,-3.0923437106422114,10.28862950754093,-2.337204051322539,-1.6132093357619104,-24.091121949415953,9.145980991348509
5100.0,3.5280523184378136,14.34999260326652,3.237360247274994,14.050589474129637,12.454554593141575,28.329810220125893
5120.0,-2.699844500437911,5.207249683025595,0.24587401024039496,-26.542980654504802,9.410572023103883,-7.370811756242139
5140.0,1.8099122981384332,12.188301479788791,-4.903692177043732,31.413560676385345,-23.045368610843653,-26.992156055080905
5160.0,-1.6239992984318494,5.296306285731599,3.946575042321835,-34.28171965640505,23.651245425993366,3.820337829349501
5180.0,2.330806011804842,16.93925998526328,0.09102543187820147,32.743245923098215,-11.896370657304116,29.241725674398015
5200.0,-3.849254626584057,6.193088242680532,-0.48990835303817076,-28.10211315307786,-2.831925125863777,-3.3075628904782386
5220.0,4.273691001470732,9.582023884640515,0.3158120807393214,11.337793696964338,19.64241800914,-31.25265000647955
5240.0,-3.117737298130215,9.183909921759716,-3.7878722278350327,-1.9535786345819512,-27.291731403769226,-3.732254780758732
5260.0,0.8306550599619049,10.970763192112273,4.4050333179559455,-13.72166040092116,11.431195976302975,30.621234830422093
5280.0,3.2529129339464733,13.828781674362574,0.7443525749787234,19.674969418966377,4.138159907802585,9.381583966861088
5300.0,-5.8870319647920875,3.0818696388807383,-4.226718658461914,-31.770638195013156,-19.503844979479435,-25.32338015293813
5320.0,7.662979096198192,13.941089805180216,2.6171959273478342,35.418969739162655,24.17671765956479,-10.005546240701054
5340.0,-6.873458353030811,6.861504403056739,-0.7143787657992148,-32.19920862064758,-18.253524133962138,25.32488665333633
5360.0,3.7041858683108346,15.129477970428898,1.3688013030639987,30.501539069647865,2.814537107510346,19.181446627468613
5380.0,-0.5834961446828415,5.010978189691021,0.822684681015618,-19.789350992352514,18.392461558882616,-25.097085184474373
5400.0,-1.8484424348408302,9.41842810122531,-4.789568805557463,10.630643062932787,-24.18490299290131,-17.897796248542974
5420.0,3.082493354577768,12.285579202012666,4.2533211902315635,4.926352611463898,20.597718411645552,20.672505632883134
5440.0,-2.9198730788744034,9.229330964294784,1.08825977277955,-17.726207535858133,-1.2230459494047503,22.490724461301447
5460.0,1.4355623585425306,12.136993630794066,-3.2210698387503514,25.072984308418977,-12.784332468548786,-19.727167729907436
5480.0,-1.1900310538502588,2.9786542584523805,1.8903568745930954,-31.88185383790763,25.09577970637731,-26.15669260136135
5500.0,2.2306326286078324,16.178032093595363,-2.032790640775,35.623892347271244,-24.178313736169954,16.50345836159417
5520.0,-3.3311852556090753,7.237856978565215,2.3570716116354786,-29.34132840715489,3.494946506351559,28.836505771930277
5540.0,4.80653689037799,12.746569371131738,1.1615639587200022,24.1364041144148,10.605130410078683,-16.158815148313444
5560.0,-4.636784513157924,5.109539857553113,-5.349990939383888,-16.82737560195974,-24.03198617239275,-30.40306360618537
5580.0,2.5974161516096235,10.54751775409528,3.158946683656541,0.9193823694218537,22.768075137059043,7.547125491485322
5600.0,0.47263028945291347,14.176935734281574,1.2848290939794034,12.184130444643442,-10.188448591709136,32.307471806903486
5620.0,-4.032579946664021,6.673514129283104,-1.571536533728314,-21.376342009955373,-7.9906917822528065,-2.769667895017255
5640.0,6.620414575039461,12.12343453564197,1.1391453802832068,29.00366015658513,22.38164484230865,-29.55017541751807
5660.0,-7.239662369593101,4.696426692918028,-3.586742489572502,-32.95747910080781,-23.77757051442967,-1.4424576798304163
5680.0,5.368230397611596,17.281826862790883,3.2192995243813733,32.46031996480896,7.745665450515748,34.64198456946181
5700.0,-2.825237926753031,6.524202730254633,1.5001602241137788,-28.11030745739157,8.177499543845158,3.795775381992521
5720.0,-0.43151040688234815,10.047173552116657,-4.826081460791305,17.1519120218157,-25.873413309293383,-28.74912146343298
5740.0,2.1730179428029217,8.047120366056937,2.4440143041418967,-6.829002019631174,25.2047005956372,-10.842632178225788
5760.0,-2.26284761748863,11.107492819228709,0.0664300645321586,-8.202778283421633,-13.132087610526261,26.254815853677254
5780.0,1.4710400536226613,13.892478778335146,0.05625168422938517,17.60110320585715,-6.738130024139091,11.621184539034463
5800.0,-0.7783278571207773,3.891752537931319,0.6325408397665345,-27.29552577491136,22.32913739294845,-26.012128043825655
5820.0,1.1679178170923903,13.342903655485884,-4.537752391878951,33.82960862539684,-23.1180060188592,-21.33194987698483
5840.0,-3.01281109692411,6.7639931340254105,3.829907357237374,-34.62026587896627,14.52696581499392,23.60585235059044
5860.0,4.412481644500237,15.97518989762611,1.7936119574215903,33.64146288903956,5.253505684194271,20.62718806976274
5880.0,-5.167861272826764,4.691019876239167,-3.927639519014608,-22.24107609462538,-16.52430325347252,-19.924609584927648
5900.0,4.235710137654244,9.263922760664203,2.034252575285959,10.578518836928117,23.396157139753253,-20.91665564322638
5920.0,-2.149556763168226,10.68939518335368,-0.8151098314406717,0.7541557497104667,-16.057763629402345,18.071857665498626
5940.0,-1.7038888554157063,9.992896607755045,1.9162253289745725,-12.78744455726663,-1.881969885045105,22.33520969652195
5960.0,4.9774819704349165,12.152939683236395,1.7470115422238672,26.51274176213519,17.51797699828642,-13.46398235004763
5980.0,-7.497489284986181,2.923355359989165,-5.293083444651464,-31.29507984268991,-26.84624743055816,-28.99346761022871
6000.0,6.170532007903046,15.596452237902005,3.4407042664926113,36.28840752967886,17.938430594952127,9.806333959213001
6020.0,-4.8195344728194875,7.462261495412239,1.5723981762439005,-31.641377971886026,0.8491041755868481,29.270038728238553
6040.0,1.7680596028093878,13.440749252305034,-2.613669642317475,32.17903436065117,-17.57642191289228,-2.1832132847922283
6060.0,0.4629584524912344,4.970566710365677,1.4821876458391263,-18.642060246074028,25.62731391031854,-31.116105006829677
6080.0,-1.3216265597619272,10.366510132964143,-2.8083981619983596,9.35504987428958,-20.45282306543284,-4.421464557017534
6100.0,1.1036750382090286,13.407306260488395,2.557808863970869,4.428143883849636,5.20999886655034,25.071451246676734
6120.0,-0.7497269407511802,7.698617192301573,2.4733969447453603,-16.96693437009008,10.664056180246492,6.577113533459877
6140.0,0.5943445368715912,11.532445635703278,-5.4727431797145405,28.49284809912033,-25.470337033174058,-33.238957818177326
6160.0,-1.610278155766215,4.544276701016378,2.5257833149234723,-34.51195329115555,18.49105984475195,-11.60866891957108
6180.0,3.7559221358630177,16.72824145531693,0.7269253651872487,33.59037980937138,-3.3989816969494657,25.8163141161545
6200.0,-5.405263943185186,6.533322174494433,-0.9831683815356096,-30.931978193795082,-13.382614849181296,11.047516298153853
6220.0,6.1540038181203505,11.008463299819253,1.3634662141002578,22.76127382904333,21.879020730422248,-29.444327352815122
6240.0,-4.275140365382589,6.794619522703125,-4.288788600025403,-7.946021022017056,-19.750718915976297,-21.633503497505906
6260.0,0.8790377297945654,12.1327360619116,2.532622310080862,0.7213639036290069,6.694467307392249,24.062413877095842
6280.0,2.9692095222895554,13.144683540376949,2.8657809264785277,13.95534846769324,9.954044717514076,20.00035027569893
6300.0,-5.553492293255045,4.877884548983186,-4.780332852461582,-22.179011906321367,-24.878461998058103,-23.10337592676206
6320.0,7.0610295631057465,12.892062385761209,1.4687892481758102,33.01316089072911,21.77332479048962,-23.2695383516469
6340.0,-5.628998807268046,6.3821642107124426,-0.6026100923190056,-34.6643792373212,-13.123372129866812,17.504676143765955
6360.0,3.612547786964137,16.716962966517755,0.5312743097523046,31.553710787284402,-8.132204696153622,22.74504073322398
6380.0,-0.8255820896242625,5.045015124712013,2.4403181930904028,-30.013839854559624,22.021797287758258,-11.50341974288227
6400.0,-0.5838321225086364,9.897347258151122,-5.081958082145411,16.61775487476038,-27.816199389542735,-27.319501904397484
6420.0,1.062193995150652,10.09431802465853,2.3872620474548034,-6.526093109324074,9.91677958733341,10.815491814875283
6440.0,0.019754115166720376,11.187894732156778,2.7900605369058566,-6.530212529612555,5.289893242398596,30.631638982764805
6460.0,-0.04890495258764601,12.581567185002386,-3.4153118015143726,21.001413093427008,-27.239176333269256,-5.239309459586185
6480.0,-0.5034486970225962,3.2137925528454234,1.8289961242029806,-30.81825111178334,25.447478634891006,-28.457018072013106
6500.0,2.7825911681168702,14.736366194600407,-1.7580943980966315,31.97147276605107,-11.680054433358952,1.041166185095139
6520.0,-4.966488028961521,7.344950810137417,1.8105305373983676,-35.847950803155065,-2.031821762736577,28.18733320788485
6540.0,6.1727539403506535,14.152657858436838,2.9793289895664286,27.867915239161377,16.794563192080165,2.3669119589755403
6560.0,-5.7966992352426665,4.004183595440106,-5.556609587145822,-21.27668254060105,-26.49096210264519,-29.319482412633228
6580.0,3.4645949663719398,10.68918215325004,1.3829389677832002,9.224597889774495,16.5374895046956,-11.15677243776707
6600.0,0.10121617063355487,12.339041455863676,1.9542075622052035,-2.4102186250316437,-0.9067272746577666,26.901801347583667
6620.0,-4.004407209115508,8.539531254143316,-1.9339573362052445,-12.801038569869785,-17.49593579143811,10.95390150994215
6640.0,6.361491045286652,11.209815542356347,1.7581074607856642,23.251187789154347,26.29974063886737,-28.64729028669617
6660.0,-6.2461746608860516,4.158930424265207,-3.789093422426694,-31.964524333597506,-18.98347888367684,-15.15393276532289
6680.0,4.183984953240433,16.970717915488375,1.2056018221311744,34.084274064329556,2.4805987525392137,23.34989969307712
6700.0,-2.3743291643927735,6.490735997949791,3.4112648193346478,-33.37416555293363,13.2464694615737,19.70649202842699
6720.0,0.38353149098081796,11.726958392702421,-4.823690988824261,27.45307995297087,-28.44647775752677,-18.974243387257342
6740.0,-0.03257203166685235,5.8215036028108305,1.188524069817604,-18.248376788993546,18.101833327904536,-23.089803630976768
6760.0,0.0353151900163996,12.256691780124095,0.7775647090499291,5.539234930442921,-6.266869587100602,17.67278671468699
6780.0,-0.5050032392508623,12.919983571926464,-0.5513204783335091,9.653344310148977,-13.652101627408117,27.401327498462475
6800.0,0.4399840146399818,5.450301199224566,2.1415692134156004,-21.082443839846217,25.415776786514588,-11.81327052285174
6820.0,1.241048874406106,11.90580633562451,-4.93848633854227,31.209442889367182,-16.857975351505576,-24.723307521136658
6840.0,-3.5517627227301887,5.501869734221205,1.6741758026962517,-36.20677255197853,6.108730320037134,12.290571982802867
6860.0,6.190840340308794,17.39220612756536,3.662992324865714,36.86292341461103,16.206476595757763,26.381098214775385
6880.0,-6.798544428870602,5.173517075655522,-3.240037555441842,-32.09241591233057,-25.874071123194327,-6.452343223574627
6900.0,5.71047060093596,10.379535923532513,1.2178032379779442,21.904620956182587,23.724705925181333,-26.058167382930364
6920.0,-1.9378516548151195,8.839828397298643,-0.62968005846807,-11.30942315389018,-7.4503576965772265,4.680592544056029
6940.0,-1.8435275781082634,12.066839492020124,0.32551830502858115,-3.3654877170727873,-11.661155745180695,26.056390157705994
6960.0,4.7367208278207125,12.017726114358238,3.317543603940105,12.183594075125807,23.931810027611874,3.3302683082873092
6980.0,-6.08939471681632,3.596606697249807,-5.602132907113629,-24.254142526489687,-25.148602745116584,-29.396353933053874
7000.0,5.328011931838474,13.963747309618647,1.1139224631437694,34.221281408303945,9.700617308910516,-3.425903044812583
7020.0,-3.7213417609520976,7.366607669915868,3.425129698457513,-33.304072320906066,10.121572247731034,30.155371559695936
7040.0,1.3960732423532238,15.337254763229616,-2.209080847816085,27.792218927003816,-21.663476381894796,12.823645843862487
7060.0,-0.7540747569721405,3.8054014572872537,1.3258060919920296,-23.672562850431163,24.44700360677945,-27.004102055139253
7080.0,0.35040744735113016,10.969145568227997,-2.3830242150731253,15.917035414471151,-13.850009617164735,-13.100641669139188
7100.0,-1.2190408516308453,11.641349478615245,0.41655881459761374,-0.32655970565510417,-8.408549837288733,24.71076401173196
7120.0,0.9430850237418518,10.215965214561916,4.024644246841909,-12.942460885094816,21.05499681174019,19.3769240311188
7140.0,-0.1434193588798911,11.186878898856735,-4.897446148082256,22.202115788281365,-23.139969694958836,-21.273953896592218
7160.0,-2.5726944939917553,3.5682278723649032,0.6824392687883489,-29.25377371903201,13.279372888769192,-23.202079597182916
7180.0,4.9541625219205505,16.326209317649923,1.9810288095437127,32.79407744585589,5.800504936303607,19.26741696693039
7200.0,-7.378351977808207,6.910300007364512,-1.492271421833345,-33.13888685178428,-21.83255056728851,24.06747248986588
7220.0,6.501819421360041,12.57641728348659,2.3421580945760465,31.989424869174965,25.81093069392216,-18.87368656896952
7240.0,-4.2409661757575305,4.68202449972739,-4.140655842938496,-21.317357042176525,-14.735418215461152,-27.681163555765405
7260.0,1.4444131215765559,12.133313598847895,0.6241504601422634,6.027324620304617,-2.2273799649015933,9.51333452517107
7280.0,2.7471743351431983,12.881702691532057,4.373483782609786,4.203827062598837,21.615162552293405,27.20294365382528
7300.0,-5.233378898809379,6.775661599220453,-4.024247666139965,-16.324598819789255,-25.4272153828153,-5.7349358136604245
7320.0,5.72885708084878,11.368975677522243,0.525910494003605,28.75858362867394,15.41898455419052,-29.73418398374285
7340.0,-4.184223314001794,5.804671271344343,0.28958155367016114,-37.29390006311657,2.0315703236765215,2.820958770577801
7360.0,2.842429703941992,17.21600792518193,-0.2453698232443122,34.78320673379833,-18.510164544343542,34.22309814521894
7380.0,-1.0601225717703757,5.113648089522271,3.380441706063716,-31.413586623868525,23.67731683382571,-2.236556777783269
7400.0,0.8771945063001781,10.715118681513133,-4.437885032682234,23.926817042859902,-19.875805573405085,-30.912930136909353
7420.0,-1.8243599241675117,7.425495189862134,-0.12007178956288866,-12.955762643679332,0.3037810537878771,-2.657774852810096
7440.0,1.9912288912411729,12.429799363269028,3.845740354054059,2.503477239710715,11.763750410961716,25.519631926691297
7460.0,-1.5068940488138054,12.644257214122767,-2.4660499623572143,12.50490240966363,-26.96728135043086,11.321087590640273
7480.0,-0.6191482892925784,4.409194600490425,1.3446457821267788,-27.0101334241833,19.616369858618096,-30.803610894282734
7500.0,3.442738036884047,13.08258785513827,-1.5310049619224604,32.97569415046877,-4.7667743091040125,-12.794117919576836
7520.0,-6.281379092217962,7.231801527999447,-0.13749488820317463,-33.48238695988453,-10.85664354185829,25.109892953030116
7540.0,7.405340415736996,16.431984447056625,4.6099903563821965,34.85935012008467,25.443022916087646,18.94150232965652
7560.0,-5.858559550135573,3.652081328654224,-4.626746169501519,-28.959483130237857,-21.849323661808715,-19.68350226205488
7580.0,3.1656993298650318,10.734526130992927,-0.38590213913210025,24.199379722883638,8.249332890945077,-18.552684135593985
7600.0,0.28877276559020437,10.305708544767056,2.4962338565195457,-9.930269535928751,9.976031927727876,20.234067424465156
7620.0,-3.29636736061637,10.562148295739066,-1.612428079026908,-2.360783894944076,-25.835664543273825,23.35753662349941
7640.0,5.220539251167799,11.021906013784307,1.9448647778557133,16.255950987426715,23.289100023303863,-14.440848782771424
7660.0,-5.0152205282914375,3.6949706652715224,-3.2211501480956706,-27.17870684044161,-10.6388371587557,-27.586230384227317
7680.0,3.5045919199958604,15.624538060126048,-0.3221762893774762,34.76227921843584,-10.959963941914232,13.211323782378228
7700.0,-2.139469602990748,7.280918905590389,5.106058378597969,-32.14785238938612,23.47959118541935,27.35276907067579
7720.0,1.0353002488630483,13.613645042273436,-4.094028233142107,28.705235789328267,-23.933675947974102,-7.13749820816113
7740.0,-1.688203801952085,3.996867365971329,-0.23449329526236176,-24.726909688463884,12.810654848291762,-31.001118637223147
7760.0,2.6870783341701783,12.110500038567599,1.571192217820741,13.872458243615293,2.8081542124307517,6.1489580851693955
7780.0,-2.665908529699545,12.164946941743189,-0.826545606740852,-0.5550046834213899,-23.53145003263424,31.838438653356757
7800.0,1.353328187748967,8.172996794997724,3.693644954902555,-12.924570441435407,23.80921993677532,-1.4153213536583937
7820.0,1.5360961268790732,10.541595055487011,-3.932785915844299,23.920010008152243,-10.289758810105496,-29.103647126822118
7840.0,-4.570696865403248,5.199830485933062,-1.2508549301316338,-28.39246589421934,-2.161805607680767,-1.5116602197281657
7860.0,6.404029749720085,17.232119558150234,4.3545131368182854,35.856808320871295,20.69096712220346,27.512662038470157
7880.0,-7.274966618928659,5.468268527268255,-2.9636125845511425,-38.07155339495397,-24.754331013315003,8.639464038517758
7900.0,5.712914052958788,11.704926036077165,-0.04618279167875833,28.234021689619897,13.476023479308237,-26.62016674051153
7920.0,-1.8594751379137076,6.426947406897248,-0.6043781771792561,-21.728968439115185,3.371027240006757,-12.822839837095351
7940.0,-1.4532313028995503,12.951677911353851,-0.7653486194591352,8.23701308846305,-17.004988395372287,27.97748583821506
7960.0,3.8047701775689395,12.17311227355376,4.612561361459248,7.229787779234965,24.808904630864262,15.851208468510166
7980.0,-4.579232695452716,5.25011413234829,-4.002275621308284,-17.58546218133551,-18.311427305972703,-21.507872096741092
8000.0,3.943495357880822,12.10439750035511,-1.212145261539205,28.21478254955311,-2.5139254642181124,-18.09912814507643
8020.0,-2.2620257978880915,7.034441624459715,3.869264107842637,-33.479231277026926,16.518852943641622,23.789078416076418
8040.0,0.9663435465396727,16.71737571737674,-1.7686848521327545,34.25538051420957,-22.533179716794706,22.101804341696024
8060.0,-1.936296295210616,3.672531474506369,1.5646182006513314,-32.61127355666778,20.943442725915233,-14.016408154463935
8080.0,2.5188266540640205,11.181812599026658,-2.0056120755671976,25.587118969672684,-1.3178448164363252,-22.3817583153023
8100.0,-3.015601799847084,9.121970962714208,-0.749718386166284,-11.116799785864165,-12.773506347146764,13.57812441111031
8120.0,2.922360962040438,11.792942330695878,5.355874066532867,-2.192385380046692,21.28796426039035,27.82482815943545
8140.0,-0.8626714774985303,10.859151667993688,-3.6844814156298273,15.505358639241887,-22.41340682912874,-10.589148563129854
8160.0,-2.585555361428291,4.103553280462136,-1.267259318849169,-22.19227780960035,6.455123935516333,-29.318445932956973
8180.0,5.80286682749573,14.747420595687684,2.4405392196373072,36.58780088003864,15.561275216788827,3.4266133370234906
8200.0,-7.441127579580455,7.051572488360108,-1.659718672982037,-36.424639973126894,-23.41776471441436,27.277067708013774
8220.0,7.058214312915284,14.3432173258035,3.0105060507237753,34.848166176347824,22.154562108599624,-1.9199247769774401
8240.0,-4.494484149067113,3.2544911443003346,-3.3047907662569784,-27.85151321241171,-7.817559671541852,-30.151394939174182
8260.0,0.7078919206186346,12.472635055901353,-1.4918121407704366,14.719512954338265,-10.522841907578371,-0.20967885129269237
8280.0,2.2111461832181556,11.419246361675135,4.871973638647652,-4.6412161927275655,21.481385405485405,27.460828769396063
8300.0,-3.835511328828763,9.281713163718937,-3.0426529225718086,-7.830203174982339,-18.51583074969941,4.471809865172137
8320.0,3.7200138586416993,10.15057108036719,-0.2951538716976909,18.954402301581933,11.118301600758937,-32.2448991907308
8340.0,-2.86567856117429,4.785737640984582,0.2544599670492638,-29.57814970205977,6.9908215066325905,-9.382212325305362
8360.0,1.4454313576681947,16.857195683629808,-1.4031113105774762,33.429391053129166,-21.66309506746686,28.84303766946401
8380.0,-1.7695710186542386,6.210862479476451,4.027080919091474,-34.88002171814876,22.589964493682977,16.661619372838192
8400.0,2.5018551755365674,11.760141668972175,-3.3481564242212922,28.634505093661048,-6.907656194063403,-24.89432336772293
8420.0,-3.544263493198464,5.153630529987506,-2.057667043454462,-22.111436992514083,-6.474510031720825,-21.03154803743086
8440.0,3.779536551323278,12.985082718598338,4.63682261192419,15.461910793387505,20.811056461572456,23.552259032454018
8460.0,-3.0483468695014824,11.454143224437265,-2.2849661168137487,2.219149970263221,-26.47013004980038,19.301187503268707
8480.0,-0.4564274703681976,5.783404767196206,0.7323904613486654,-15.47242472255238,14.301703307815167,-20.67137144431701
8500.0,3.9647021681236794,11.179865886971703,-1.0937623958571896,25.73024504000938,6.184776138140101,-23.5086005996216
8520.0,-6.8382214376643535,6.591545493021555,-1.508110181895372,-31.82309605905107,-21.384196652704,18.262657104477196
8540.0,7.433334313340527,17.197610146158315,5.6168317646168555,33.29804535936942,20.603638253603627,22.592653759676878
8560.0,-6.157687654265688,4.11221553548404,-3.2850931111207244,-37.148244667214314,-16.258575340827754,-12.392905036982217
8580.0,3.0737840777546657,11.550845779262128,-2.374952790762386,26.465592365786414,0.9503975990589368,-25.47170375417591
8600.0,0.3706298650589476,7.829677422799304,2.7195584735628215,-13.757955682161043,19.64587897472317,8.19097661329746
8620.0,-2.220510991931647,12.762451527555966,-1.4231208674829772,6.61432544623832,-24.968583147935185,27.554233826660862
8640.0,3.663343370516608,10.608899133235353,1.9368063122787345,3.775410512263109,21.990499829650116,-2.74955720552939
8660.0,-2.9583924443952694,4.313871084310553,-2.083045312396053,-22.40722542081969,0.0438066499635279,-28.081601120811385
8680.0,2.074467929811678,13.962275385360519,-2.5689910722371767,26.813903702246694,-16.337597311968892,1.1445137177520475
8700.0,-1.3654751301554087,7.287337478356503,5.440505685164043,-35.93196610732709,24.663950473270248,26.381953136556067
8720.0,2.175107037360532,15.232598314638683,-2.0489981489821756,30.434786131503508,-16.44921042176337,2.921544929241839
8740.0,-3.645477535966285,3.13551993847222,-1.617889374585333,-28.69421300187043,0.12654645721071756,-27.585527887377978
8760.0,4.463304402550104,12.148556635907985,1.6642182909882524,24.330038741699575,13.353675119880242,-6.863094243336964
8780.0,-4.18952542878867,11.085392126659356,-1.9940915264051828,-13.006202605316211,-23.64251916888442,25.258269027331522
8800.0,1.9822343501609616,10.339181287246646,3.5972315086081936,0.9683335513651561,19.703757614055608,14.600029883653372
8820.0,1.0455276772668707,9.581961435905484,-2.806499458979343,13.52649167776881,-3.2145845973682725,-27.88644752943738
8840.0,-5.006668796334709,5.0184972609482985,-2.7926642692879997,-27.643988064918997,-14.664652486430754,-21.257192408524595
8860.0,7.057846292967446,16.35882013959671,4.92967840792263,28.363364921837494,26.84260551215428,24.95110457961035
8880.0,-7.4113730557482915,6.4807856600047895,-1.3217914803680457,-36.896074962660265,-23.216335726964484,17.6625658602522
8900.0,5.155234012784966,12.54779759759311,-0.3201789836020882,33.876367564657876,8.04765369551247,-16.119445471051687
8920.0,-2.049981600712901,4.263342975533627,0.08884324785303341,-23.36391457082889,6.084228502566473,-25.72032146416826
8940.0,-0.9476270126151463,13.588560837605897,-2.1729325948146196,14.285683767432939,-21.267567680444678,17.951326661442735
8960.0,2.344170039188362,11.505867770812838,4.920912211355669,-3.5065068490271307,21.70204478543504,25.203231740340325
8980.0,-2.656879718226668,7.609351919563323,-2.5018748049324575,-9.450354045118601,-7.592099369272953,-13.710694882557911
9000.0,1.678817318932105,10.692377665816384,-3.1915629339186737,21.02230859163219,-8.946880284584683,-25.786248941655618
9020.0,-1.177182014153036,5.905623583699429,3.799407038272143,-28.932297762930318,25.304656993592232,10.141298931959824
9040.0,1.7712009922047054,17.103357794924634,-1.2575783089110188,36.18257432793503,-23.338511317628132,28.959816061261495
9060.0,-2.8685408955547387,4.394034247312339,1.0357986902592018,-32.482409791589426,11.151549947756227,-3.9392163959748974
9080.0,4.512578063749263,11.865411431136087,-1.1056366475351358,28.511958767002167,8.922642636113203,-32.83015554353992
9100.0,-4.960509879386648,7.116768283807287,-2.712806315601724,-21.515364698699386,-23.157829080919896,1.4130996550988255
9120.0,3.9884740458253085,13.379136879723328,5.310950461499974,9.966589560299784,24.415223755435107,32.110184951361006
9140.0,-1.3978408513248413,10.646869578696508,-1.6926915468477812,5.4108123286862675,-15.51483209242981,3.136857474635245
9160.0,-2.619206387229209,4.7128015729606005,-2.780176119563734,-16.597211382864057,-3.193164081868622,-27.926299514323922
9180.0,6.324880808310461,13.252901134283704,2.432190944283187,28.56153880110148,20.55428832944264,-6.069560072572797
9200.0,-7.04770972810776,7.176565082467032,-1.345767918686938,-34.546384087623984,-23.739857519919767,31.14546039043694
9220.0,6.496038204454033,15.679472794522486,2.8396849101288817,37.241034208799256,19.373826297173466,15.49368921834732
9240.0,-3.93252859371329,2.9293356459711832,-1.3478334175543354,-30.294695397871507,4.864978094995413,-26.053183454300232
9260.0,1.1656173142607815,12.56101893340631,-3.8196837643408394,26.919856866434124,-18.589943911585493,-13.264821120557878
9280.0,1.6584890573772457,9.905960385315225,5.375157733595697,-13.877821948031015,25.84887603504035,23.788416078263932
9300.0,-1.6331135576001257,11.874834868361061,-0.8683543649407801,2.060252627128116,-18.01232416775219,18.13604006627266
9320.0,1.4550250831352316,9.498475530620883,-1.2155010647542692,8.86357326892973,-1.1221951120547862,-23.648219947499786
9340.0,-0.8303464261278408,5.1348958402328275,0.7118464837204659,-20.580796233240143,14.962104408973204,-22.51661269834736
9360.0,1.0601638511314444,15.583971856590015,-2.088901949022085,33.326057434075125,-27.136290875297053,15.965510769659138
9380.0,-2.0937617865520974,7.216259101390686,4.056589619543979,-39.73181035896254,17.602297041932417,23.43035145115497
9400.0,4.40213910563278,13.686483853280711,-1.3386732325487378,33.91973191865026,-3.25878301382415,-15.412142658413877
9420.0,-5.395001323789274,3.56403930268017,-3.9591901297768697,-28.258160253201375,-16.892248519956652,-28.888361883100618
9440.0,5.402915881794042,13.39936653633086,4.243236311817445,23.729841171731014,21.98421956394361,14.945282933648459
9460.0,-3.6313077199457444,10.956000518913235,-1.0488121258992869,-7.500293258867862,-21.778657006242298,26.885511650227397
9480.0,-0.3560700082518713,8.660059631201262,0.30362476962561685,-4.893851776456666,5.727108736412841,-12.245252116666105
9500.0,3.509304399076784,9.724954532350756,-0.0034284467298700827,16.978259491078266,13.82130883556828,-25.264874896365974
9520.0,-6.6788190587422935,6.0543804820856675,-3.3135569307248365,-24.68880511910998,-23.558279980652394,0.37875891871552314
9540.0,7.0495971713696175,17.189980166994093,4.882492543134172,34.343064333452745,21.253469083961225,27.451386566065224
9560.0,-5.475286624884791,4.8411577854679555,-1.212011522206146,-33.57075626962492,-9.615149242105085,3.316739688372883
9580.0,2.6859138729140617,11.64892450027622,-3.7636292457478144,31.381998763145326,-10.8656728621439,-29.673996945026992
9600.0,-0.42736327392244167,5.685196716142674,2.757133995633195,-23.116621864136807,23.621940566018836,-5.677471429116705
9620.0,-1.0898300980680997,14.301311898622695,-1.1323101331547476,14.784104348507343,-20.458699116604482,33.17809006188111
9640.0,0.7216871649236529,9.938579347562593,1.9422864589354363,-0.9976939184330502,10.684342547157602,15.871015258159463
9660.0,-0.8473720090746262,5.731675093024998,-0.8901677329516213,-11.38232601093002,7.970547552237252,-29.332479744895004
9680.0,0.010674882283224413,12.18095419787249,-4.12032296964035,24.20031087654519,-24.710480992158086,-17.22520392151948
9700.0,-1.2096106991042703,7.11806297234862,4.827148088264334,-28.9964236001646,24.450516981264066,25.720889078408856
9720.0,3.4241425238315317,16.0961144402158,-0.9476478676470433,34.4646238936748,-11.04742479492285,18.834745907491158
9740.0,-5.386514045913339,2.9198132632374225,-2.470054464953336,-33.92570724080167,-7.519373621841173,-23.090966296085995
9760.0,6.109076482774772,11.634820578524462,1.60273102905936,28.782982462725478,25.025940294799504,-19.15725199347239
9780.0,-5.403357469555675,8.822135242539742,-2.335214940375476,-17.18394285262274,-24.724477769754483,18.629657072618148
9800.0,2.39115737589133,12.380755033337394,3.5716444083284777,6.861528827096237,17.20226384068626,22.035861837432968
9820.0,1.2699483089832468,8.993019468712774,-0.1580729369053821,6.4432669563616365,8.425087504678876,-19.43282730262728
9840.0,-4.430461558900659,4.7264783778679975,-4.7040491471554535,-17.18493912665851,-17.49282617717307,-23.28445441070849
9860.0,6.529546588263385,14.713381047564663,4.453508335582649,30.216173261339378,23.4602063564014,10.839105603743725
9880.0,-6.146407428830185,7.186060118971233,-0.3643426864897397,-33.72241730961342,-13.628881922092381,25.806997716617357
9900.0,4.191013745729086,14.486113703841015,-1.2622752054028274,31.09574380404537,-3.8484229736486544,-10.381313054467178
9920.0,-1.7769450453700208,2.620834852952054,0.3685193671442575,-32.42454974815008,20.04673630426319,-32.914831681963264
9940.0,0.09047350779527771,13.495313771047776,-3.20977017893369,25.578783799294182,-19.960207348186245,5.156689994399083
9960.0,0.6922127074349322,10.34125931367771,4.346682662832267,-9.97584236046599,17.183094748588168,28.779107821684864
9980.0,0.1782046638283848,9.926609051558803,-0.2711349572296166,-1.8551928643684963,0.532613155043951,-2.086343977125042
