timestamp,ax,ay,az,gx,gy,gz
0.0,-0.18117297054863668,9.76855538836582,0.058023104254847094,-1.025299830533847,-1.7435360679639207,-3.7609598790464434
20.0,-0.2655172659095061,8.91601550333167,-4.307284168806165,8.335937860069418,-18.67904722968551,-29.54388358616547
40.0,0.14771886675693155,6.088705416050686,3.2864706615317028,-25.620279868736766,24.37615207699139,-4.6015109869061925
60.0,1.1736415567189409,16.3881553207207,-0.6942060432827495,31.62867524619264,-15.1519879463211,31.79740586117131
80.0,-3.997329886587813,5.710347958753679,0.8882118275447626,-36.27820322741685,4.027824873029152,7.30835649678596
100.0,6.242022845801734,12.525942936763197,0.043582370351883115,34.883862271450134,16.95235130327392,-26.51013040305149
120.0,-6.305485818672186,4.673274889395424,-4.137122879579612,-26.768384356093065,-27.511025458588,-11.811116473295995
140.0,4.569788369957163,14.732943235546811,4.720594920368705,20.62269873077975,18.452649588000405,27.825627070520007
160.0,-1.2149429857269127,10.216911947074854,0.29675265074828655,-7.538647787227932,-8.903602106340724,17.033598011552467
180.0,-2.94758987139824,6.57952097312424,-3.7015302281069267,-5.7407049074220176,-14.42213815524043,-24.960364794506603
200.0,5.390881855567578,10.815462153077478,2.2126127288074087,21.28262339618739,23.112524740433365,-17.816180743692584
220.0,-6.502074209568298,7.390277000127683,-1.585800535146287,-24.125721910839466,-22.348699581982046,22.856795633796143
240.0,4.877584895111628,16.62732833509139,2.508446523270193,30.750917264276882,9.177697208509386,23.2898355788955
260.0,-2.935435282850621,3.3317663285696564,0.4625332394003487,-33.50220263794522,8.411293841105527,-17.831987976207184
280.0,1.5014193637116446,11.691994196521213,-4.827938825811629,28.102992476529806,-22.133697894753084,-27.879917547992417
300.0,-0.2050453722259432,7.833944168084639,4.0213975807747895,-22.115305184710692,22.99673061773936,16.458744885656948
320.0,0.06154067854178186,13.837644871904274,0.4366481774434923,10.971489662095184,-9.980608938349393,27.772575486907005
340.0,-0.7021272870335415,9.309128671973339,-2.1503353492425346,0.36215623823410215,-9.28974813873261,-8.396749035805628
360.0,0.918154278925814,5.159461226674021,0.8419924982462028,-13.86029129067832,20.204917477075718,-28.232152356085486
380.0,0.2857869163161566,14.179790982293316,-2.7720811324050163,22.068770592299785,-22.705954378256184,5.076410290700241
400.0,-3.012143263765578,7.598075762660183,3.7201626821425187,-31.48893269702641,11.122728013048805,29.61292710665557
420.0,5.30840966061078,15.045308497397356,0.8964389589088413,35.364778140028434,5.958468688557559,1.6400986023710282
440.0,-6.959363642140509,3.024867084856175,-5.130348867337301,-34.81587880641496,-19.449189196135492,-26.920520228363376
460.0,6.311835162974167,13.466113467594376,2.9201081665009845,28.616795297127954,23.106238916527793,-2.9658197694578545
480.0,-3.550327457715352,10.221330394764442,0.1671216437136725,-16.66807690934063,-12.706461945068991,27.268508142815392
500.0,0.019061016744171974,11.113704531447015,-0.09921018729554848,6.003374626775724,-2.3180729729515956,5.982502361784652
520.0,3.1824992164100614,8.506223413782827,1.2850151176443512,6.574237176575424,24.623506509434364,-28.547681263613203
540.0,-5.625357248186429,5.816647969463113,-3.9590433623295787,-17.236997209927793,-25.037705111189126,-11.608196432120563
560.0,5.762245115296059,16.064033561738995,3.8414836059439392,32.26421037791742,15.889551957634293,26.448740303502444
580.0,-4.2116261734125535,6.48901721834784,1.2568042545006506,-31.775776429977114,0.7434974370088128,14.379473225026896
600.0,2.0727366433726133,12.816341686234452,-4.418078535164567,33.14725923167066,-20.421884663948354,-25.38261537938831
620.0,-0.7629488395453323,4.033191629299957,2.6179539158589633,-27.988512542612803,24.19934734016948,-18.56806092771892
640.0,0.8416550003577904,14.58728224995668,-0.9104038471493842,22.964622679627585,-20.263541305641322,22.33817448571907
660.0,-1.6366789836832218,10.307800011950242,1.0264734032175937,-11.692206547526505,2.952016861364571,22.598709546046425
680.0,1.7670559276755469,7.76586808887133,1.0260941508883377,-5.102212774719915,20.56246807663155,-17.943903551502288
700.0,-1.07506246854638,9.808344117011833,-5.029203858759499,16.813068597998633,-23.998471379430004,-27.315728664138717
720.0,-1.023394012783454,7.754362860231905,3.4730087087406414,-25.2050411860992,18.92832363438825,19.423698083539616
740.0,4.169375810429605,16.779863737178793,1.4039565427481746,34.394990446684155,-2.457283921151162,25.84265703835197
760.0,-6.527113484609865,3.5578477964285793,-3.394569075617456,-33.58035420150441,-17.626699341354428,-10.157591242989247
780.0,7.12527224199048,12.039744100242231,1.7103183283713947,33.11346547946896,25.540840638030726,-30.32329518958033
800.0,-5.934446266390883,6.642876785046878,-2.4974161917442514,-24.533956297343185,-22.6076027614753,10.898133089732722
820.0,2.4707986154071735,14.453872551549273,2.191365675079128,17.103796092849493,4.755604704991508,30.041389027508274
840.0,1.2051103385895863,8.935198899992976,1.8145021612870433,-6.414940388210672,11.98285898922031,-2.1530824745786528
860.0,-4.339244829862079,6.2610320208758425,-5.538439636281529,-12.419657848096955,-23.888727190114302,-29.595833943808195
880.0,5.0681882355717995,13.096953906226164,2.8365554394904344,22.17015250094237,22.465955260140767,0.5035383400344318
900.0,-4.99272656903503,8.057696865925625,1.2240774769443796,-32.91587054984162,-8.635997213252566,28.773839255156137
920.0,3.076525003635451,15.208330999370801,-1.1856000210761972,34.56467280673504,-10.737119997277278,3.2896837755352077
940.0,-1.6099340527370896,2.525458842674225,1.0217213977570212,-34.21141374643481,26.44461860363095,-24.53777897291922
960.0,1.0457942442170765,13.387751794360609,-3.6615064811748694,31.36014643522371,-21.04662385340162,-5.965074064182119
980.0,-1.6612051489893398,9.327969947599595,3.0854332939043085,-19.20861148183048,7.258888065975295,28.022653299082723
1000.0,2.1616514176044777,12.29156249146453,1.9400173054696728,9.97507584821808,9.56106294381748,10.732433047853343
1020.0,-2.0265867068670276,8.351029375808897,-4.929885624922364,3.646769239222314,-25.259861184572667,-24.163333698442468
1040.0,0.8980856774357804,5.955654100269461,2.152865398228999,-13.781891197915495,22.52502492574619,-16.84426859995171
1060.0,1.767116893639555,15.293818856926023,-0.3591065857999502,27.98332225751052,-8.17236700407503,23.665802305655703
1080.0,-5.18923885247133,7.124907383397625,0.49191449192298686,-34.79118174100708,-7.199239292243512,23.0702446460678
1100.0,6.9009554874198376,13.017777394459896,1.943212732624355,32.202124467170364,20.650105313479205,-19.520355547064323
1120.0,-7.16060872899926,2.72744151479625,-5.3821756320212035,-32.486167954456455,-24.291639900083158,-22.659835004607448
1140.0,4.587713285655969,14.889071231509686,2.710556460815817,23.68551711327861,9.989282617350337,13.122994474182097
1160.0,-1.5061869155137781,9.91286828500022,2.8432453729359772,-14.624213493742122,7.415461951420108,24.30236723009856
1180.0,-2.0590343577150176,9.094461434245229,-3.8820203089870087,2.24027073584759,-25.02012533332604,-15.109289501561616
1200.0,4.280331159834331,8.718345433079557,1.313399371501538,10.980479471709485,24.78941986130725,-28.30669691795481
1220.0,-4.811513872494879,7.410374615679558,-1.4547084097356484,-22.350433082809296,-17.47352713651727,6.887739291757441
1240.0,3.6866151859339107,16.636975913762246,1.0636215439857664,26.86461963093302,-2.1017985336268703,26.42932477734974
1260.0,-1.8226206187989222,4.886330140038274,2.1993367367283905,-33.31317401018958,20.814138549037185,-7.609604601000251
1280.0,1.548090248798808,12.066868779476346,-5.146619276609183,35.93412196868165,-26.79647206010316,-31.635809147069452
1300.0,-1.3526809032429985,5.680326057207681,2.393041936149584,-31.231979266995555,16.89622704051134,-3.817066041285164
1320.0,2.547523040361614,15.48095806708519,2.039905525323791,17.903312026082567,-0.8362831024770031,25.78151187625294
1340.0,-3.2340933130102463,8.738533617844766,-1.9952124895686179,-9.767451886045412,-15.941363454688837,3.444643516029956
1360.0,2.483762538783595,6.763522165399653,1.1793789517786486,-3.0612068254402773,25.41458327510854,-29.890317549319633
1380.0,-0.08943992556847627,11.392989446973091,-2.8806165328170366,18.650900145839852,-16.54678122694043,-8.614394718122037
1400.0,-3.221624883794404,8.139878166065706,2.0448150653531023,-24.950158603665155,1.233304923698494,25.55856330976165
1420.0,5.952530994678922,15.299712331948289,2.958907302057408,34.281256539177974,16.2540567323282,10.644104667125912
1440.0,-7.005101827629432,2.2799917760635346,-5.344574078002875,-35.944788455791446,-27.384024031820513,-24.88630468753879
1460.0,6.668430371548539,12.857698440002181,1.584858191437134,28.91067958769262,22.27756683794492,-15.093894076975742
1480.0,-3.729421335364154,8.392062422483425,0.8604657155001949,-24.817074327461608,-3.927007262647417,24.414536349862118
1500.0,-0.22304650982328722,13.662856006324274,-0.9060159979095552,16.605567129023513,-12.406903329595767,20.730651522515696
1520.0,2.9256197825219536,8.179678414414587,2.1192992435966382,-2.631719925627575,24.145453785913066,-20.327948202127168
1540.0,-3.980219640394155,6.304949505071612,-4.577559433936147,-11.574308904437245,-23.042049264516095,-23.211852382721826
1560.0,3.8954613939020883,14.491390886953912,2.306106863949627,18.93851153563554,7.6354168734117795,17.07335065259821
1580.0,-2.9798240875320774,7.404817864297799,3.1528494133587777,-32.66263552828093,14.314955727790338,26.965104677068066
1600.0,1.525126374246346,13.55945025405073,-4.116170787567768,32.35435527497996,-25.68879473980959,-13.29739582160374
1620.0,-1.971371642198798,2.9976800990531727,1.3024023725880203,-33.77058274981637,24.066248502066937,-27.472249555415758
1640.0,2.7233363447274526,14.538924042037765,-0.4838720357725839,28.2463103055258,-8.954935629949377,6.965205821551507
1660.0,-3.5272362041788767,9.360640187531214,0.6908626343317196,-19.29538950936059,-10.492678958125467,30.330113010295506
1680.0,3.797864733245552,10.47830690744383,2.512700607965342,7.461799560567504,23.571580800451354,-8.534471296117221
1700.0,-2.3567317772847325,8.4074510008305,-5.301115850011625,7.506512425897292,-24.14897838894811,-31.012562288749503
1720.0,-1.0335709779823907,7.533598854503786,1.6569465415446047,-17.4726054962277,11.259832428624618,5.626146823693123
1740.0,4.546858304445037,16.057552493258225,3.0986159274167893,28.956955282994752,7.477168234153456,29.646255797126646
1760.0,-6.708021204321747,5.246307152308806,-3.143346170024429,-32.95725924447019,-20.31849863855501,2.4039065741217978
1780.0,7.32482673460005,12.76665532989106,1.5523772410380976,31.869818618105974,22.8961028218703,-30.6675303186489
1800.0,-6.166576487859635,4.661840923512211,-2.0931580314909133,-32.47317412995078,-15.371831481043845,-4.430610369334785
1820.0,2.2304599606425386,15.754929598715353,1.5235370792181973,24.618614718025075,-8.939438121350625,28.72868614349375
1840.0,0.8484059375476538,8.897597442607694,3.402401388016374,-11.861320004689908,21.527227800677398,10.835008553408583
1860.0,-2.9569031133117973,7.6337377618373905,-5.194128724204885,-0.6825457587268327,-21.58740581722029,-27.990411233716486
1880.0,3.4557153077508995,10.198518807526536,0.9246073273127233,11.35034486561368,12.797940588267076,-13.124403393380373
1900.0,-2.821268406753817,8.736114557715373,1.9515878400370918,-23.118838717905938,2.3436779668595644,25.80183741976228
1920.0,1.975553526575006,15.784174625232275,-1.4664750205328447,26.27691794448692,-19.08416923873378,16.58779561446398
1940.0,-1.2822937638372294,2.7299662100125266,2.1007465954493725,-38.00723331375204,25.8806584674383,-21.202885390031938
1960.0,2.359799715684836,13.1987579124663,-3.5009716611006985,35.964427836821116,-16.46797706383267,-19.417531795532096
1980.0,-3.9063379269408403,7.555123534391452,1.1286898021056389,-28.44749368827002,-0.23477198246759406,16.086204603532977
2000.0,4.771959561330994,14.578796185659082,3.94569007897963,15.770358813820643,18.093430574940122,26.824821780551446
2020.0,-3.874875824221364,7.756893137258887,-4.414720326269514,-6.5630637335813935,-31.189438567387405,-17.070905694035865
2040.0,1.234985617645125,6.750939474712973,0.5902620385284774,-5.005211605039316,16.898832791734037,-29.041387601092193
2060.0,1.9051230802119685,13.70676894885392,0.6479585678093845,17.10299566046292,-5.917927634076511,11.936305830711142
2080.0,-5.6053948981830795,7.870641470437632,-0.2928658349321414,-28.80288183244077,-16.072403651288393,25.03501301864787
2100.0,7.4885180283381905,14.100886049409892,2.82964349209769,34.8703754783302,24.662086351302786,-7.464211136087015
2120.0,-7.073705674258593,2.7831689524560286,-4.810089897825462,-34.646980573177196,-17.8660094083488,-29.531183887823417
2140.0,4.632114303751817,14.336871381952516,0.8225587797518762,28.901957672015378,6.246789982977972,3.304628599335783
2160.0,-1.3604849698149126,9.100320044630463,4.030212748458401,-20.928525156041665,12.106254187414857,30.36232185848642
2180.0,-1.4742218391677129,11.20422949635963,-3.162203079603258,10.145773597342169,-27.09676515721352,-1.5192191037545861
2200.0,2.982396200152809,7.674823453070167,1.047229045527755,3.318484429500857,24.58669883612576,-31.97960474288951
2220.0,-2.450984102392366,7.559310194338314,-1.4946201871477258,-14.493463712328976,-6.899157255798551,-4.995014648034031
2240.0,1.462097142434728,15.436670187075181,-0.06512949161150788,20.07868023121451,-11.524513263410583,28.748729024859813
2260.0,-1.3493208606392604,6.2007855787959025,3.9761009481578578,-28.23547840916733,21.147353186143537,8.962734798621012
2280.0,1.9801113680455897,12.57308525317441,-4.877764929071516,34.55470159863989,-23.485583426687956,-24.29540359096528
2300.0,-3.2363034512868936,3.8795353557048307,0.18357251184380155,-35.10644115386519,10.926701542569257,-18.623806761463406
2320.0,4.774656846355997,15.838271300176588,2.857977960891033,28.554105783144898,8.329035429436736,25.124641943891923
2340.0,-4.6396334294109005,8.873338582491696,-1.9806557580572397,-17.75174331211829,-21.45006054482613,17.890286601639342
2360.0,3.5660912011481214,8.47061447858451,1.4712111415510996,5.683039010111093,21.50347226219571,-24.568276906751947
2380.0,-0.4742046106393557,9.16394583354909,-3.039903890175037,9.872056099814861,-10.818073090256469,-22.56466705090312
2400.0,-3.013357724780497,8.587368921181994,0.5777296034653878,-17.342020446376335,-8.274097226002851,20.071860420145352
2420.0,6.385190891810168,15.653165267042558,4.706326955586224,29.287825480088472,21.721889117962206,23.212720951035774
2440.0,-7.232929655002389,3.708398602683264,-4.1868863530584814,-31.677489740018416,-26.419927712778847,-19.005075826620406
2460.0,5.908740962691362,12.418439678341745,-0.14032485018190066,32.7369870705937,10.978965260588991,-30.357401772346925
2480.0,-3.447278282501329,6.404764696095027,1.758399840179439,-29.20026463500662,4.493524712091012,12.383921565802098
2500.0,0.5242188442555482,15.454222130355628,-0.9955648275642749,17.613352348755356,-22.689244336555273,25.97812582641329
2520.0,1.454515524342581,7.505853153005125,2.9313326844479444,-9.783638762757132,24.250543935486586,-10.751504761795537
2540.0,-2.1649472278646154,7.005196588486226,-3.7641154213389103,-2.258076786699233,-15.774518855112927,-28.32173285822305
2560.0,1.2232201447753723,12.291847480556985,0.00977423304578022,13.71230234696497,-2.958951387159526,6.396159172692823
2580.0,-0.8593439468667682,8.844869714988064,4.6392791813574386,-24.45455817716178,22.40657248542782,28.355947943252485
2600.0,1.0370221948740952,14.110670845354466,-3.278715028468974,30.514973300837404,-24.814114931580974,-1.1904890534103563
2620.0,-2.2781354248249506,2.2810747211722986,0.1984618948304195,-38.99758758010633,21.15058954695873,-29.56298834470662
2640.0,4.604074336340073,14.344919756988222,-0.07419808524701241,36.429108036957764,0.05012082952539143,-2.0559690343840282
2660.0,-5.674374300125629,8.61491107238117,-0.45758493775569986,-27.536347839809277,-17.535925036555803,32.51232134294416
2680.0,5.074414904970566,13.312233974308537,4.074068510713108,16.108919717153615,27.80845026065407,9.650065848164544
2700.0,-3.009979706449634,6.565184628704646,-4.684220514342718,-3.019395299866437,-16.29972634443741,-29.843433322104328
2720.0,-1.0954356468139232,7.711051722735294,-0.18130096679646596,-8.387504885369559,2.685073597633715,-14.653660854715978
2740.0,4.625095837291839,14.972458630079702,3.856517964418882,17.27330743541236,13.074606988217555,23.971362010948102
2760.0,-6.73937454687873,6.982480710043756,-2.1400529624589293,-30.053053814107766,-27.002747548054394,17.365247022887242
2780.0,7.015778914132778,12.668047444804813,1.5832384329826514,34.52096807984064,21.071400361890717,-23.744976790734633
2800.0,-5.306798375950156,2.9276644694122425,-2.018015454104714,-33.34560204317272,-2.98334156805275,-17.47581255462469
2820.0,2.0915386118133763,16.1021270341535,-0.48727736827000867,29.286267618956202,-15.643601577090838,19.197060244627966
2840.0,0.5505955537475993,8.761903392660285,4.801604459586589,-20.864763861650097,24.343525697445305,22.26243724044367
2860.0,-1.3018524601865726,9.779527093455886,-3.838486361124108,8.439274438375966,-19.609334788630186,-20.634979139911007
2880.0,1.1575130302113374,8.022149526122245,-0.5366451798130343,2.6081880869604475,7.277397944372589,-25.87997539395445
2900.0,-0.6477680106569189,8.995975177971896,2.697901292563361,-17.29083102437326,14.944887606046287,14.407596333972556
2920.0,0.614226245987517,15.624813499436996,-1.7107430604635951,23.702590554225623,-25.87823943033717,27.006986445628538
2940.0,-1.5352462576763968,4.292702908070177,2.322279520367319,-31.61106148291669,21.127219631293702,-11.102379877032968
2960.0,3.5544618408371167,12.453611563373423,-2.9498013972634856,35.055998028809995,-5.575964105179738,-29.96040435999377
2980.0,-4.985289779342142,5.815075788465128,-0.6345512102009117,-31.651398950344007,-8.494141767984706,8.257778498231943
3000.0,6.094202612395923,16.0297146903634,4.9090541165067245,24.243103190781095,23.17689487260193,24.20870740279011
3020.0,-4.693504209299227,7.289499489955773,-3.330470675177171,-15.620619566296272,-25.11532927299923,-0.4510475225855459
3040.0,1.4708761854013932,8.040653652521485,-0.48495417372298555,4.726784754227088,9.993506313148847,-32.51239399823474
3060.0,2.065393960148987,11.161267351395942,0.6131421474974568,9.348729221749004,6.766387649812372,-4.970451459048662
3080.0,-5.409049496614407,9.419803072382194,-1.1791928891992323,-16.299499656340455,-24.637193483202136,28.287283828861284
3100.0,6.641985229055426,14.646458133814916,3.6931234236506514,31.90756864139992,20.727082206458046,7.16523687504728
3120.0,-6.221269701298685,2.396619628311861,-3.5664106400374607,-38.42116083386637,-11.478791693900433,-27.54916722943989
3140.0,4.084635708139019,13.555110358701954,-1.4278713399758998,34.10039605844167,-5.5302047238671035,-7.041715607189264
3160.0,-1.3298206387355633,7.998612140526685,4.31689743304508,-26.639013994938537,21.461233027780253,26.53065505000483
3180.0,-0.6112832776460619,14.020775013759534,-2.434258573625484,22.114166381512362,-26.157286701033527,13.86056985624055
3200.0,0.6419822188715969,6.616123022823209,0.3526313746163386,-11.624845327097654,15.932194596033217,-25.384328784238928
3220.0,-0.22547138807546993,7.923666063244128,-0.5683195935205761,-5.511025395376285,2.5054062274856457,-20.857020292068984
3240.0,-0.31367821649067146,13.78402460992132,-1.2014150611945893,18.36877860343838,-20.00112916348961,22.48630345969096
3260.0,-0.46040158988524826,7.6912866846843295,4.769006582709834,-25.163449312583946,24.17545965777357,21.14253675440609
3280.0,2.432652292030969,13.130962474430527,-3.4960885766409064,27.87827826033413,-16.400046762896064,-20.99096006762786
3300.0,-4.372424706175407,2.8065799173291546,-1.6180779061991655,-35.612092876207974,-1.1942410576020155,-24.204637907361736
3320.0,6.022371058436257,15.76521467649015,3.6143122445030516,31.057544934134174,19.46116624024608,15.929700344087564
3340.0,-6.155609017758996,8.70919326460542,-1.6968694695744437,-25.748595117754643,-24.63657121900418,25.581526500213194
3360.0,3.887905022512061,10.841329562463086,1.988461281427852,12.867441666950002,19.126098807388775,-8.00673695695734
3380.0,-0.4656680945632821,7.0661279320476895,-2.3568166005321647,-2.3157031697740056,-2.512427025892209,-28.829214929648934
3400.0,-3.2522742432604557,8.761327163498382,-1.8552957255983147,-10.352802082932733,-17.249132141277062,7.848061121688601
3420.0,6.198777233398926,15.423248025538735,5.90998114726004,21.340097380434074,25.501720287985975,30.468240250336613
3440.0,-6.399126446669101,5.347371402757271,-3.3422809959800754,-31.499630354148696,-21.921538812404254,-1.8176526608333126
3460.0,4.669799634121606,12.39021425872971,-1.3235403154460104,34.109542279723826,6.860417898653678,-28.985663965818965
3480.0,-2.8392248832401874,4.818789658165809,1.9409796569061346,-33.7318113895925,12.195406453049957,-2.1086818125416107
3500.0,0.7462195703512498,16.382648431152543,-1.439800660371848,29.892587590833724,-26.10239907567187,29.243584744499753
3520.0,-0.12936628943202,7.487372548667001,3.5725281659329906,-16.381943667446116,20.690912209009518,5.15551607694326
3540.0,0.22251000092808199,8.307535276860897,-2.6974821949893846,8.173781465794717,-3.881913092453724,-29.061335008932257
3560.0,-0.8099282194504247,9.352313118250908,-2.1288814167931944,4.5464421447032795,-15.577597283489647,-4.86243558519348
3580.0,0.8088564620761277,9.704873411758916,5.4127129959763645,-14.779007532675863,23.36591213931512,29.555062172188162
3600.0,0.4301514333058703,14.78235702180858,-1.8814627577243246,27.66135333226134,-18.569678838372017,18.68023844734275
3620.0,-2.9465859290640175,3.0407844107271087,-0.6786277983282688,-37.24660522369228,10.098970811932885,-25.295156992575563
3640.0,5.873721737449309,13.39572100393465,0.29492613651373917,36.113904050133044,5.887289462399676,-20.811908458998555
3660.0,-6.9160266048358885,7.0228673760983975,-1.6358568965020028,-32.2734499381731,-23.69570686537521,23.107485348385172
3680.0,5.550929673555345,14.966000171435802,4.742135697863296,29.382146500726,26.533165206337422,16.7425842260896
3700.0,-3.2901392479028293,6.218304716460677,-3.027407204292875,-17.268569024841533,-8.529100661916685,-19.628692235767794
3720.0,-0.7987568898987789,8.021721857868776,-2.9328932043589244,1.5878535796619366,-7.051236484893058,-23.120936738309698
3740.0,4.267950841226449,12.814607375470818,4.349338358875767,14.01739399689155,22.3732887638823,15.915828461433325
3760.0,-6.132469837403459,8.421202903019012,-1.8134984866201376,-21.905271058907744,-25.63976910131339,24.476773920439307
3780.0,6.053648557782215,13.374487329387598,0.683050611953156,28.510679903120888,15.735164620168657,-14.340320916383645
3800.0,-3.9903703084530044,2.5056219993053186,-1.1963597585306498,-34.79243821541852,5.416909107599039,-32.63025664396252
3820.0,1.7280426941031857,15.652075634402411,-2.347740745900899,36.99933885212353,-21.377005890554106,8.165047852595194
3840.0,-0.7632904476188644,8.591134719616525,5.300166613798605,-26.21546873536138,19.083403629707387,25.927575203282405
3860.0,0.7087406265433824,12.142862523793303,-2.342050409060616,21.67486812515461,-7.801957912626765,-3.3860356522469743
3880.0,-1.47094281704492,6.185567245208808,-2.4822104703116876,-7.169333692470998,-6.979293903044839,-29.541911010896467
3900.0,1.7245464491331906,8.682541227897309,2.3877106882425982,-5.259390131044399,19.09085544995982,-0.686730744122498
3920.0,-0.4569683700564958,14.752651813134229,-1.7695285761206487,18.849250126601753,-23.740593547288558,30.025180072639024
3940.0,-1.375313598458418,6.469429532994972,2.391913154056228,-25.981577542036813,15.445137872060737,5.239509481759647
3960.0,4.683556686368455,12.164591232690807,-1.8378540598380522,33.33961439339019,4.1939855011313165,-30.30235164471183
3980.0,-6.778971869916732,3.8519559079918433,-2.9360307862822768,-34.7022726567488,-18.38174740909188,-3.7352095614752736
4000.0,7.50440989478862,16.66096216880428,5.568500860851732,33.15295299554711,22.951132442738924,27.413364792058726
4020.0,-5.029483785220147,7.349794452411502,-1.8520893506420422,-20.966467466736106,-15.417436668589994,12.69770920880692
4040.0,1.836540103818453,9.439974981380136,-1.4274525127005593,13.393442204447231,4.145959727592476,-28.92293942020856
4060.0,1.7931083912553207,8.696130899549459,1.2200816578884586,0.08794129785292554,18.934407250803616,-15.826699336545648
4080.0,-4.521360895483582,9.981581214904065,-1.6241660439235972,-10.643249499038397,-23.29522035370417,21.755655890635637
4100.0,5.060215620711676,14.504574021237094,4.2249311340309745,21.05514114653897,19.24794370658754,18.479835870799434
4120.0,-4.57345573631295,3.6972037066170453,-1.9947664954971522,-34.12541814009826,-4.733302811400456,-21.67450228471348
4140.0,2.803029168746969,12.877265184640674,-3.5825463858191973,33.32884784499884,-16.64838592313154,-20.801819283186987
4160.0,-1.266699054570048,6.525200362227414,4.758160612852891,-29.757892853719685,23.529484861232568,16.221565727197707
4180.0,0.9586627562639904,15.8811378449366,-1.7025195040834848,28.907434272110628,-19.235538307510208,23.737068927356994
4200.0,-1.5624761437795402,5.893157560323034,-0.10238750097120776,-17.97367435600346,5.429703792866335,-12.516847007712986
4220.0,2.1089943171659087,8.440187789213102,-0.31693469638936556,3.8721582028435355,12.532206482574212,-25.66968472574193
4240.0,-1.8979054307051015,11.796629536394212,-2.6106848399251783,8.955081871216379,-24.35988027259712,12.035552106158313
4260.0,-0.0742914551385993,9.43169602515845,5.256846793843451,-17.72704125490963,24.085100341465562,32.23894322993092
4280.0,2.537471819338813,13.361701878137868,-1.743476744240323,30.87180214239844,-6.407697362240269,-7.482250185846235
4300.0,-5.919928611514348,2.750476573014439,-3.3549427376498664,-36.00331390252639,-11.935528446216434,-28.532303077108303
4320.0,7.210617527045096,14.635389592346952,3.638029378908427,34.5907594662777,22.741636251177166,1.9381446908438849
4340.0,-7.014761982279548,7.573373188591854,-0.9298260313246611,-30.584043896263488,-23.77178947719833,29.350073561192648
4360.0,4.02982819869798,13.308248263609743,1.3076705818055694,20.069500375140056,11.495228174365755,2.266568994229216
4380.0,-0.5119988904002437,6.018735395756892,-0.9474620987017532,-11.884425031116182,9.234094514383157,-30.48357368363571
4400.0,-3.108712868033046,9.236418894073127,-3.3788119663002014,2.1824591287146866,-19.403005355870555,-5.375691199893972
4420.0,4.395014732610417,14.08196021991668,5.0810475316548604,14.64609095401089,22.53077833785265,34.989708633842945
4440.0,-4.795772080649896,7.490810042347032,-0.8546921318909138,-22.171759578110894,-17.681177830110393,8.098612316238723
4460.0,3.4310145172791287,12.17851346729326,-2.7661083767954877,33.32642067181045,-3.115405039974225,-27.746746753967773
4480.0,-1.9287326465887322,3.699437249573317,2.043022315916251,-34.144678698972655,23.406638914782395,-14.877572588592969
4500.0,1.294492184082902,16.819966880893457,-1.5761453581885254,35.99587221010195,-23.665644303708202,22.245668356456928
4520.0,-1.563562445688386,7.695857780076316,3.28739964244274,-27.355378357671803,12.408949183920111,21.813588650715502
4540.0,2.5383981137455294,10.56953561689477,-1.3874503587431604,12.701401010823272,4.646384279229415,-26.59308048314532
4560.0,-2.9249397506266894,7.488135109820964,-4.320044841470137,-1.0466118319332862,-21.255881010658264,-25.59661247683205
4580.0,1.9709081606048746,10.277968999749367,4.871031859164686,-8.63233544158585,24.543526547193164,19.985803112314763
4600.0,0.46640415908816557,14.693135357194533,-0.7589598332145038,16.82292537390703,-19.21683666438696,22.089406830651058
4620.0,-3.8920247483022465,4.526980303422839,-1.4171357360216361,-30.534640350963915,-0.1961987334707863,-17.98785343238661
4640.0,6.572981160946409,12.266235207368277,0.6445533741112609,32.66017345210755,14.338244985033025,-25.43327583285489
4660.0,-7.461544424466821,6.067948693138831,-2.4238175543174165,-34.584108622112915,-24.965170946009916,13.471168380654046
4680.0,6.0819048471587065,16.35901936945254,4.72831879318702,30.042281775840387,17.201439473264028,27.700600248903427
4700.0,-2.7137768756961096,6.429260053195096,-0.8806093651319848,-20.40256758863368,-2.6243912368405393,-9.600875041915515
4720.0,-0.5617670361860962,8.706506093119645,-3.923514748583069,9.197860866745696,-17.777773169547956,-30.958117959650934
4740.0,3.0588489491658204,10.591925779649099,3.6083551410280603,1.4384827042469943,24.20313493881253,2.657897785819008
4760.0,-4.254069034552977,10.284129780758898,-0.6810999913834492,-15.174922067170575,-18.61428064912461,30.690019456160158
4780.0,3.7378931329333995,13.435912307411996,0.5016201552245505,29.175056644345496,1.4027837240088585,2.341090991806544
4800.0,-1.9888330012821025,2.979359925924693,-0.28287456306674574,-31.831966870623614,17.590091334672096,-29.381945660325247
4820.0,1.525189408856652,14.210239715529614,-4.1089871672896185,32.778004437590006,-22.908853953758452,-9.58054683568935
4840.0,-1.6582999722516933,7.723743275764433,4.7943963394559574,-32.40667664307443,22.197971834921223,29.466680636553576
4860.0,2.4094248562553493,14.051587313016014,-0.6087754044134109,23.885197679932936,-6.814441348973643,8.527311639854489
4880.0,-3.32410643148657,5.067445391839227,-3.615628843836601,-14.337262521318026,-14.627217978505318,-26.93860036514721
4900.0,3.508486646110564,8.947666040201241,2.3167134808794336,2.8775726374478645,23.896653075569695,-13.836859213963473
4920.0,-1.2004975338919084,13.522925970787021,-1.8210082363436886,14.680266076265337,-22.313039992917126,24.477232770122363
4940.0,-2.011570979805881,8.323794741942544,2.337335287421661,-19.72099924388372,7.48386328724694,16.665863780428538
4960.0,4.999444420065309,12.237382939108823,-0.14741109554527382,28.43669375105867,7.147464766806051,-25.891609647745796
4980.0,-6.797459885056547,2.751715223174057,-4.587948190461388,-32.26234888408514,-20.974577252703014,-21.05964085702692
5000.0,7.015486999403821,16.40634302089038,4.769552262277733,34.317558981664256,22.54133890103249,21.548425989077597
5020.0,-5.321656290848993,7.824480607042498,0.20540141050012617,-27.41750296427489,-11.083221495930776,25.180968521374503
5040.0,1.8272932822828427,11.420956091462456,-2.275779200876452,21.23529028181888,-8.422479814353988,-17.5312731115045
5060.0,1.2225837936328072,6.305297836509548,1.4486532624724118,-11.89761337184201,21.020955976079918,-30.704769707079514
5080.0,-3.288190960436276,10.346094138722458,-2.4633043165402952,-5.622249465126949,-22.844757408888498,14.091678515778154
5100.0,3.673288462420073,14.644908067851771,3.614208068719575,14.588127437644177,11.559459567933454,24.920038291764072
5120.0,-2.646864102101297,5.286732869154398,0.3380641424329105,-24.93062814790152,6.43102471230622,-10.344338142929617
5140.0,1.782350401491197,11.80936704740193,-4.771500247161363,32.42589552143582,-19.624940304905063,-26.868149563800305
5160.0,-1.2298506194954792,5.4402424033513945,3.5231288004220573,-34.142268222881135,28.816098289905632,6.19388980330031
5180.0,2.3473366760872203,17.143099691485734,-0.2844539185902549,34.31353081640352,-15.996654494780705,29.737073662777977
5200.0,-3.627489283823184,6.318799972204153,-0.36479786161159744,-23.05267363925272,-4.689011668790714,0.849656165674501
5220.0,4.062559156585097,9.256549176352372,0.8929479281237385,17.720612102632995,17.694963070456833,-33.12088040196368
5240.0,-3.2967183841275802,9.109876526480924,-3.6442036778794558,-0.5477286688660057,-25.445214637137415,-3.723852078284897
5260.0,0.2681480724194579,10.78124478106466,4.063921730125605,-13.803605172574434,15.087300695474118,29.558054209998215
5280.0,3.0137973493628336,13.58822663577926,0.8634272823275827,16.84627199606938,3.1262716377072444,4.398481889048736
5300.0,-6.362986812663012,2.923200631750794,-4.357253088688959,-29.643922133181654,-15.461561251474945,-27.36172784545764
5320.0,7.523760248563161,13.956950117476717,2.2074041696537563,36.552446033907565,28.15187291959178,-12.479008505810716
5340.0,-6.27942640081353,7.323850081981317,-0.7952099361635252,-33.34738207603321,-16.907105802332747,26.880809562803485
5360.0,4.047314688205877,15.504715503995495,1.078230247481823,27.995154660917336,0.9106226109789701,16.64667483322368
5380.0,-0.8758473798909648,4.826148551273963,0.5912051639181317,-21.284913227964104,15.042360873405888,-26.498756666790023
5400.0,-2.069144210102363,9.570360794606398,-4.8578069534676676,7.22156418351297,-28.519864589593748,-19.779379029218163
5420.0,2.6103899766611254,12.416904995155821,4.200567397718704,2.9788998188770144,17.344859996401688,21.21507224043091
5440.0,-2.740971790914306,9.198044757094339,1.2295154438808917,-15.725167112973285,-2.287655000549995,20.61491108958579
5460.0,1.3045231066140415,11.998151172718991,-3.070888909261167,24.720790393229507,-14.286096114215438,-23.017359066379036
5480.0,-1.4123259149476979,3.00025166832873,1.4366740651492749,-33.45081607783345,21.499504244593645,-24.216504811446956
5500.0,1.747782331006804,15.775961235203779,-1.8521880751851885,34.7808116366151,-21.99341836696708,14.790163399838407
5520.0,-3.09251304969578,7.400575897277145,2.8187410052819275,-29.788339153416267,5.586406789883459,26.804972682455663
5540.0,4.51177417257134,12.506757222677315,1.0785704317566336,27.07424847592272,13.264901079884046,-10.2005787950824
5560.0,-4.507159471834871,5.678376972784148,-5.331923160279919,-15.909644507879941,-21.49737956519672,-31.079155386707033
5580.0,2.765211966379188,10.589804377131376,3.510839554147441,1.392994720936321,23.573472818424705,5.836529359551295
5600.0,0.3804421346590716,13.633651033768896,0.6318631333000845,9.927759636666703,-6.436438828838737,29.62164122935905
5620.0,-4.2452152119871345,6.391110085216942,-1.5103526515478782,-23.504707892449613,-11.023286612933028,-0.3575300921446134
5640.0,6.8469639155739825,11.478480847982212,1.2815639324641188,30.71960975614858,23.856763089174045,-30.963668309662864
5660.0,-7.188294956535599,4.747129201468197,-3.389629754532442,-32.82395602809744,-23.121429098719762,2.2966582141907375
5680.0,5.345985289874467,17.28799343402428,3.4664894423491748,34.97798541301675,8.36402241151331,28.951374607650724
5700.0,-2.4003980381768537,6.228690471554065,1.7596757809212706,-28.509661680093945,7.275294790655984,5.5768844529337676
5720.0,-0.0860432234992406,9.869343225866402,-4.616782687499414,14.716930891972577,-18.43834430031061,-27.509450262548853
5740.0,1.9210985224104675,7.690236660662124,2.564346052057218,-11.116156774679247,26.090464970294324,-11.460224098820932
5760.0,-1.8138391368088629,11.736821695463208,0.09091217095511954,-6.982785740023936,-10.486001833903806,24.791113226422336
5780.0,1.4287089530004915,13.529281076097638,0.37461216803155073,18.041989893079517,-6.575647130812969,14.126016243539858
5800.0,-0.9747043347882156,4.177738290480468,1.093743459412088,-27.618086348339997,23.855650588258722,-26.926339655639353
5820.0,1.5615056591059742,13.115879135668909,-4.7458292139738445,32.33715986922044,-23.494696746931968,-21.63181824912478
5840.0,-3.1375043070174247,6.43545263334222,3.652791209171886,-35.59837554923006,14.352828852902752,19.509530053726998
5860.0,4.566150301649897,16.196983182819107,1.985107384714865,29.409445353505053,7.090234115784977,21.168549694197495
5880.0,-5.424350939583942,4.878944316172173,-3.866375836131938,-23.291811263394756,-21.189693795439474,-19.381215451765915
5900.0,4.678278347785058,9.396174633729773,2.1394543089420903,12.857675740217337,25.149019735752876,-23.43241738837778
5920.0,-1.9183073879616162,11.080016532178686,-1.2029991062925287,-2.178406855577189,-18.474288112781572,16.151459530669435
5940.0,-2.0859776510032173,10.143158640631391,1.2292346193374528,-13.147580020601964,-3.277261588842624,27.16551906415236
5960.0,5.144703801342769,12.103104713679784,1.4992520065407156,26.794262999392323,17.036150717025194,-13.486163469117916
5980.0,-6.984238695227508,3.2473154869597147,-5.411536383170818,-30.364243159926392,-27.258492740496237,-23.94278020160068
6000.0,6.486775639052269,15.266167868356945,3.1678288441256237,36.86683445419917,15.903925058231128,11.425563441394909
6020.0,-4.668475151846788,7.417110491462166,1.956191656728628,-34.644331196927666,-2.9654128371561637,26.67973370948413
6040.0,1.7111701053939814,13.444376998147243,-2.9990706414746597,28.675339529971392,-16.557975983126074,-4.1676286427535905
6060.0,0.8068116628198392,4.380334482132933,1.8708679089168676,-16.76843885558154,26.740229895848536,-28.532510234500307
6080.0,-1.3520098092512702,11.010126526156458,-2.723274926098357,3.1987663229657763,-19.93475931809173,0.3514262439321618
6100.0,1.3761727270866853,13.10773505416745,2.4450447094226426,9.514675616084068,4.634427347532444,29.941546274997474
6120.0,-0.48737833643725614,7.667771567573026,2.467399055297812,-21.164065007878243,14.847449348964014,6.693869094977535
6140.0,0.6805209565403008,11.590540729257421,-5.565211992869898,29.69028453675264,-20.74368975084075,-27.370803433732775
6160.0,-2.2192514370060583,4.055901142480557,2.4464487709658043,-37.12117845780533,21.416675520332944,-6.0737113156271025
6180.0,4.04516217636632,17.268403654267047,0.8813909356201463,36.90020177027552,-4.42307811801831,28.389621032306838
6200.0,-5.208407340976556,6.366073744408463,-1.133690442109764,-32.8276216845627,-14.085194547958356,13.614470961862711
6220.0,5.724828386197927,10.676991294891602,1.8674633907050775,19.762518808371293,24.77424015607796,-26.201467468235226
6240.0,-3.9939570998590943,6.706922803799359,-3.8021445073215894,-11.11242334874454,-23.872246751077935,-13.754050728618349
6260.0,0.9215801753488435,11.710239136135673,2.674505038191186,-1.071807589678285,12.094623361392578,24.517067535094316
6280.0,3.5823854254908634,13.273385761524404,2.9645697231259858,12.608207813933948,10.204501266348714,19.939506988546448
6300.0,-5.731530703349354,4.325344734072318,-4.50316709800737,-22.916216104447038,-22.252171337038092,-18.910261269519236
6320.0,6.855874964308042,12.304449831399303,1.676901388546328,33.470550712017484,22.53803186720404,-23.707526874418726
6340.0,-5.90434196325065,6.135107449932921,-0.1458715892264555,-36.98353597465128,-10.35242071823035,18.639715694296548
6360.0,3.156037089927015,16.455109411127808,0.6156122514503376,35.462385439580274,-11.832494203793882,25.919728409584188
6380.0,-0.9939771121724286,4.803670564586944,2.0092610707008562,-23.095571693709623,21.3401306652731,-14.42419713810715
6400.0,-0.44225176176192343,9.899771462608932,-5.359967003974585,17.24866582295187,-23.480966370480942,-26.24537432827837
6420.0,0.6561725104797166,9.671533129581341,1.9966770626739883,-5.719532501821945,13.451304878393717,13.659667921832764
6440.0,-0.25773454313174876,11.738749392586582,2.8849407502424538,-5.694785369499401,6.851726996419707,25.911489399919333
6460.0,0.3170652781810753,12.503936197113735,-3.0843426526587656,21.10353869444566,-20.478994924392442,-5.845904733894941
6480.0,-0.3321544636983659,3.0700742101036127,1.6360756593042731,-28.75223048015314,21.68271435961825,-31.63353162846316
6500.0,2.4552098736336365,15.128139345986096,-1.8583537232321459,31.89948705877648,-13.612916567952155,-1.7772866564601684
6520.0,-5.097085248298188,7.2800588905920565,1.3816100459599876,-35.16546823386474,-0.2493834092158287,29.858809202644053
6540.0,6.04304987989301,14.777558620895253,3.1393363779928514,30.013158095203455,22.484732096215144,3.151110754697849
6560.0,-5.900563019025986,4.478667649376921,-5.1719522630532815,-21.761686701164752,-24.640698089580052,-31.574388087198137
6580.0,3.4578767791976075,10.45712177344918,2.0328669983012375,7.466320229989034,17.260882345421724,-8.804065020445307
6600.0,0.5242463148214118,12.413627245970613,2.1259201954759166,1.8406758679995168,3.0335967227598717,26.71891938587843
6620.0,-4.117517467901731,8.853818011330949,-1.5886867690869606,-16.657210293507838,-19.659031397510077,12.780749653552364
6640.0,6.398613012184067,11.015888833467931,1.6739707263264196,23.72135795276174,24.088820647947333,-28.985704991094003
6660.0,-6.281555092960034,4.051616188843578,-3.728044166692861,-30.28731544491134,-20.143355061229297,-15.839753830088036
6680.0,4.90034983318626,16.97416380056564,1.6328528361822279,35.66921526081672,0.51111095276522,21.60516734746523
6700.0,-1.916293772733634,6.865226336507177,3.6920544491377205,-34.01968416807052,14.275481835893864,19.322210781912037
6720.0,0.20978038873649363,11.826701211373713,-5.150488095215356,27.417782775149316,-26.063996366686013,-21.676730734473036
6740.0,0.20464450533821574,5.637757971660581,1.155381047208523,-16.42894067860809,20.33071186056165,-20.02046504633514
6760.0,0.08516638372552701,11.830339321163962,0.6415977430674965,4.932102622450291,-1.1750958525069763,22.042461904728825
6780.0,-1.266483775054025,12.933822809004061,-0.32319831863178156,8.53251237050364,-16.196897825053234,26.20331964171033
6800.0,0.588147930797714,5.778995652342623,2.3348996724338176,-19.96349382542361,25.10580200846846,-14.313877337939221
6820.0,1.4546876070434744,11.286498485201086,-4.794351302311186,30.51500683112956,-22.665777917205258,-28.51035841918976
6840.0,-3.743638493419779,6.006940511600296,1.1811792986989271,-30.3511082412568,3.411878985253346,9.720645900695208
6860.0,6.034657775385003,17.08201190479203,3.6432125687738433,35.62855941929244,13.730315345319012,29.854328369056137
6880.0,-6.783300739233968,5.023965023545104,-3.9576998484049577,-30.89091988073063,-23.27238700026271,-6.668019556232143
6900.0,5.392932304162075,10.648484956080418,1.160193713885008,22.206047349666086,22.207066287962967,-33.9962454376654
6920.0,-2.427290481065313,8.280153926706168,-0.7698093695483399,-6.675215693951377,-4.243331393543023,0.6043278236015883
6940.0,-1.8492839295600472,11.404637911762068,0.3560921959851334,-3.2187444761471355,-10.376835434516526,27.982683421621665
6960.0,5.3458249879124695,12.530862883598422,3.187148667319112,17.713062479124115,20.920412604120624,0.9907859452819543
6980.0,-6.129277498958943,3.821301663800851,-5.028502137623861,-26.945108255093015,-23.903236309994117,-32.39898436350415
7000.0,5.346055981177544,13.940422675009215,1.235756958111676,31.465374372306087,9.666752597407624,-8.226619194233013
7020.0,-3.439523460887533,7.308921448133638,2.709277261803861,-32.77454477324943,8.592049904316982,27.534091668057304
7040.0,1.5438485123929389,15.264407329515173,-2.674724378273123,32.40529031054976,-18.214049078414348,10.559749314892757
7060.0,-0.535813038625431,3.767955509387544,1.798033448395004,-26.01311691009391,24.969276412358184,-26.21947862944451
7080.0,0.39682391950384804,10.97234145817732,-2.8503539281516366,17.39723824222824,-14.435072616809016,-11.294442603689635
7100.0,-1.1240453508063206,11.3738877630882,0.7592894259804069,-1.7298772869638264,-6.483657228413522,23.115968875826823
7120.0,1.1760988727345347,9.928294849730612,3.9867818497157472,-11.07840276314582,20.81637667998945,14.275261619426159
7140.0,-0.30844867030747425,10.811842891917708,-4.490067688378233,24.051151115290097,-23.146475474937688,-20.376145384178873
7160.0,-2.476577566183443,3.8633140723683885,0.22437135259720337,-30.887162385812303,12.06819124150847,-22.128052172030383
7180.0,5.070152818301583,16.224461593658198,1.8805577519632393,34.83540503415157,1.6198378320803348,18.120598826095286
7200.0,-7.078687757295197,6.9421019730103435,-1.0707518574377057,-30.579978593451873,-18.851126424192714,22.448758866747667
7220.0,6.754223302244408,12.950869312150187,2.6091077162655147,30.27850060509682,25.542022969213253,-20.331882037028606
7240.0,-4.477572329869225,4.791145023782311,-3.8646080103085887,-21.562970449522922,-14.232756967564448,-24.75894424918331
7260.0,0.9868287118023231,11.907373138696714,0.4979286009337503,10.117270168880916,2.7216317293530974,13.225810413350997
7280.0,2.7203892045669136,12.238076321761131,4.285516653831786,1.168367504771,18.799491231355006,26.239491371873136
7300.0,-5.450824678041521,7.220785145543878,-4.1672307604366905,-20.551077914180077,-23.81379697903223,-8.360345519867707
7320.0,5.310455309491844,11.028291268370984,0.6492679185435014,25.07836163750773,17.145038777170743,-29.660241445668618
7340.0,-4.395768777888946,5.474957037394519,0.2566595337553447,-29.996441976891823,-0.26880726742582856,6.958998017434681
7360.0,2.4253499122602356,17.235833080027604,-0.4318287424294337,29.268283715752357,-15.77585761991262,28.34997023672757
7380.0,-1.1628968327702096,5.169468562608526,3.1479967006366416,-30.28673079496404,21.237470349295233,-1.9334534733715496
7400.0,1.011205516086071,10.789910516585698,-4.840707298361432,25.87119409806132,-17.464347225093704,-30.295082029268094
7420.0,-1.3075070973155598,7.1907580336481836,0.31817151551712064,-17.923197615562234,4.8749777678608375,-6.4960399789991925
7440.0,1.9393681593416625,12.258224328621528,4.047897013489492,2.362179880674776,17.57897516105331,28.340828722368993
7460.0,-1.4872177757491305,11.986604056426266,-2.741524429395393,12.685724170101185,-24.69536633767777,9.64801653447656
7480.0,-0.5028028973442008,4.012308318796806,1.0768577053884032,-24.17152583122487,23.0302929919238,-34.35833107703501
7500.0,3.2170383038943,13.064393173501161,-1.5564661818845054,27.9931716376824,-6.017774640531747,-13.659935586602934
7520.0,-5.7538456126281465,6.938625376067672,-0.21667382374833474,-33.02589281621651,-11.450936964822562,26.09428894179681
7540.0,7.159963711288549,16.210486009773454,4.391563277379541,32.005810314273305,25.851921539361605,16.5611689270867
7560.0,-6.520918397489294,3.8209252430184986,-4.625456402123795,-27.906166147088125,-24.32865044575667,-25.671766877541508
7580.0,3.3255881402787897,10.567804176047556,-0.6684757451492083,19.29015622427131,9.724531401910795,-16.189119100539546
7600.0,0.3744802013174494,10.34584602174318,2.6722610484298928,-6.807409857023442,8.654767712970834,19.283095965361557
7620.0,-3.5177329357642284,10.743735497410029,-1.8430491067159065,-7.156914487564082,-24.60894389198865,23.55214216554848
7640.0,5.087028893381544,11.110013014676198,2.2016398429312005,15.676708264248873,26.022464802610674,-18.433146921947
7660.0,-4.566535866446203,3.6773908062086655,-3.0276831689889563,-29.46331360121743,-11.893904570728733,-26.17291559214654
7680.0,3.147551415500814,15.435885455969977,-0.5890508760792087,32.212157565801476,-11.03232847844615,11.212214138416039
7700.0,-1.9721656659715643,7.400219128347565,5.076910313517502,-35.67057640265293,24.08777068132714,27.31859531314061
7720.0,1.4281412572058618,13.557853163085714,-4.09694586512032,32.17812645116445,-20.9864579852769,-9.863736508461225
7740.0,-1.7407551310782452,4.144013188244795,-0.10914066153064131,-26.314516488541333,13.493436553796219,-28.899053247666558
7760.0,2.5188202946267637,12.234594149031683,1.109525330699663,12.24231351830795,7.910962850883289,5.740469394025375
7780.0,-2.745960864044605,12.171330531048797,-0.9575608826154588,1.0003220203144187,-22.776138276961436,29.15993765487244
7800.0,1.2296313276954125,7.889890472352246,3.16499202724047,-11.789426184145125,26.522114389241978,-2.60004498120983
7820.0,1.414252031642223,10.705312011302986,-4.053686848989678,26.084684693062204,-11.84593613149849,-30.019457228046818
7840.0,-4.31316806747338,5.215651529219143,-1.1276286085108813,-30.05636017988002,-6.0375138173695815,-3.327522197070301
7860.0,6.966884628482006,17.309822081115165,4.539441849471195,36.221252836939115,19.313250350042825,27.287465057776203
7880.0,-7.653182529276959,5.616057496521129,-3.098420504437209,-35.83210813633647,-27.220444562597766,4.509124160117112
7900.0,5.342080150222016,11.353233391935277,-0.01671161039220992,24.54104648941134,16.51538517447021,-27.34055782177411
7920.0,-1.9483375428616623,6.440205823054273,-0.4491341120534201,-19.641880309133978,1.1151944377972303,-13.78160835565147
7940.0,-1.0777625620657156,12.908233757184544,-0.9832332851393094,7.01650981430122,-16.072115947761613,26.656997881610607
7960.0,3.7896220227643087,11.998292874816345,4.170479430824467,6.509067858272335,25.594682408817157,12.417788609462344
7980.0,-4.664793509212923,5.095000577628497,-3.8381236529499634,-17.05249485106505,-18.43716143613201,-27.888704638618528
8000.0,3.749382627285179,12.129413821911202,-1.2079008285356347,25.668324851898216,1.359360618796214,-17.71167460692908
8020.0,-2.25777388074685,6.66202420621295,3.6335545264786413,-33.50102984444387,15.252634203067483,22.334066388981107
8040.0,1.3935492782082797,16.816592259186063,-1.9607484690258576,33.89412071577789,-26.71134610612323,21.21450699358812
8060.0,-1.6419654642542483,3.9707143862120837,1.2573175797223,-30.66494359287391,18.326502104032457,-23.137177558887736
8080.0,2.9273634545094724,11.180721932567376,-1.6636868502516802,20.17626341588253,-1.8819664031439758,-20.835177992494145
8100.0,-3.4604707075691477,9.086267240115733,-1.3460161604482395,-12.655978478543664,-13.558067385719012,14.887335210912823
8120.0,3.144593772519452,12.172564078994121,5.103398110248131,2.199530762682854,25.127536292835586,27.54061731368885
8140.0,-0.7645235534393995,10.688654749041032,-3.613671397554601,12.689914565940484,-20.69414426760572,-11.635273823140722
8160.0,-2.2623456591565283,4.310066038704551,-1.5076929513038526,-24.48873090624949,4.657743904856146,-26.760025339434794
8180.0,5.878253211980665,14.686429184778257,2.4838500288119945,29.156201535930464,15.705786429378005,9.216202879440448
8200.0,-7.248836697709273,7.06210933717791,-1.2963473997903532,-35.27898242969526,-26.20810213250791,34.64154842327882
8220.0,6.92399377436268,14.421065428181363,2.5789013254733515,31.63217302639872,20.84631769518406,-4.626960732484193
8240.0,-4.834140654830088,3.0802289680908825,-2.9976310482923307,-28.794529958815644,-6.546127373965308,-28.402127894572292
8260.0,0.6567315700008103,12.53939959796754,-1.517821743686234,20.82251929486037,-8.978851527025707,-0.587183640344006
8280.0,1.907216302934244,11.03554065866639,5.501824991135358,-8.823179540862172,24.6696790508131,28.73490844539496
8300.0,-3.776467111396904,9.112580671205032,-2.602593729949802,-7.3379665963153835,-24.31464778129499,6.8133145488509514
8320.0,3.6137198802688,10.270350793168477,-0.6138498796799895,18.490499512841932,7.932505306918634,-30.40242112969324
8340.0,-2.304517764264154,5.115811074394621,0.653146481607792,-29.71879862977103,7.683095189458338,-7.89535583629948
8360.0,1.812981966144537,17.354477228788227,-1.442656952577369,34.466894525757574,-23.549571828326723,25.7656125382537
8380.0,-1.6994966028121774,6.136581074118184,3.945263304461168,-30.471417108380578,24.119190264770523,11.558718433408536
8400.0,2.5650288268394728,11.859813306207904,-3.4822984699528945,30.105796554248077,-12.86954696318424,-28.37160101950322
8420.0,-3.5264663303787023,5.1831236127686555,-2.2572457624254154,-23.692951699094586,-7.052928588352106,-20.631448867189125
8440.0,4.494691162682693,13.426556475991887,4.543314024425341,6.064280661785662,23.035923859945346,22.802503964712802
8460.0,-2.680611662533412,11.722459057983803,-1.8847089376730415,4.052388978460455,-23.953804312159644,21.752989464811773
8480.0,-0.5989992727946761,6.033618778751288,0.5032487360100345,-15.67469613368172,11.223145125934934,-20.79396258748923
8500.0,3.7398127169520197,11.355879208678445,-1.1685606407809481,26.489462479363564,1.7484374417766615,-23.465569387584956
8520.0,-6.920724794096049,6.4263342372591845,-1.8227077947572974,-32.96950417543378,-21.061114433107573,14.241627949077127
8540.0,7.40784881037873,16.603426508372056,5.075193021134205,38.89756759293104,25.99834992872476,22.713238868878417
8560.0,-6.508678366772452,4.240217442039573,-3.2094056216044926,-33.86366024890127,-13.872061241504522,-14.560255842072435
8580.0,3.338060971770194,11.116559813783908,-1.8562558880144715,25.92714398430392,1.821455600684565,-30.136145256804447
8600.0,-0.19824934946653044,8.186805646852227,3.386547618100402,-18.175587571674747,18.481377941548672,7.285801621625085
8620.0,-2.248472684130221,13.066240817152766,-1.6016123746484923,4.660080682645294,-26.610337831720088,31.756519095959383
8640.0,3.2757984222498693,10.652410270949906,2.1678709518040913,8.424229669086156,17.177043446801683,-5.255396426881815
8660.0,-2.282795988293213,4.447454184056943,-2.021819357294243,-20.56725343078498,0.18038070060534533,-30.308201833623542
8680.0,2.22033653805409,14.414504967093183,-2.5181305085568235,34.171743209234364,-16.0202337095938,-1.7589607113602002
8700.0,-1.1503849078183022,7.500033035390071,5.523941161544198,-35.291532844442386,21.94986786877063,29.577204605804454
8720.0,1.9590323194437984,15.28074882839332,-2.0984068661939848,33.844447322371,-21.054086615327233,7.371097701935138
8740.0,-3.7176109347252484,3.2664206349276896,-1.551080101291802,-30.984765501475856,2.122862430054128,-32.62505044851348
8760.0,4.8027779757924804,11.951392798800311,1.5871600942991462,22.266678267646412,14.708702815566694,-9.394916894937085
8780.0,-4.390610696585638,10.597660928500112,-1.6534753294091629,-8.825748059790879,-23.04922491321748,27.53824113427955
8800.0,1.9045963812746665,10.302503625873863,3.9556843115838394,-5.187335043054454,20.42132450765125,12.16141972593638
8820.0,1.249757216974832,9.271944870655268,-2.2897000227259476,15.351365499496113,-5.715306829329987,-25.50701163482506
8840.0,-4.938310612761938,4.712752796881525,-3.013136924978259,-24.43731008386251,-11.84210369066069,-14.728525472140182
8860.0,6.839552362477285,16.399442661642997,4.828962690514187,32.5818724428822,22.396900335576536,25.02133178366938
8880.0,-6.9276882094191725,6.474110859855796,-1.710813043902795,-36.99769692167088,-20.578276144119744,20.091259979542308
8900.0,5.0120245593326835,12.991597713648098,-0.48725111476499844,31.085715653502344,10.041507459095872,-19.165239689346592
8920.0,-1.8686509975893066,4.150264754136962,0.2808119992037771,-27.058721644424153,10.315152895798125,-22.268097471928186
8940.0,-0.656508003557867,13.723550216443027,-2.027116682464592,16.867352741842808,-23.03855072836152,21.015550725185058
8960.0,2.186835130125742,11.391302579924714,4.869962653231809,-3.715936016131771,22.119247560543474,23.260538428155993
8980.0,-1.9229142530253216,7.495424327367919,-2.0708461021602393,-8.310783943193622,-4.199473566875156,-16.52654285598492
9000.0,1.8840777456713245,10.728115223526931,-3.1280845072834937,22.547019859795032,-10.746564313437295,-27.989171280655253
9020.0,-1.1032117819026577,6.042324644578601,3.8811564350497947,-32.40289352236798,22.30295953872286,9.602492955180901
9040.0,1.9608773636551173,17.08685774325521,-1.54621194553385,30.830794134633624,-25.08347069947101,26.120017830950413
9060.0,-3.1841962371484525,4.553019795888147,1.3407629023081258,-30.887100964003373,11.261789823367007,-6.068453339461947
9080.0,4.785882124938593,11.464710585044008,-1.026320433721722,32.0856435739274,5.945945346082675,-28.53810532355371
9100.0,-5.218441590305163,7.021038607991638,-2.8052886579015626,-21.630917796523715,-18.92936883363637,6.049831118697282
9120.0,4.201966288894089,13.312735342996753,5.424170718990241,8.267436524921859,21.718048597970682,33.219462403506
9140.0,-1.1595205688209833,10.635090897485867,-1.9450875097220655,3.9013017524679348,-14.524336376455421,0.8812515923689381
9160.0,-2.2468395014082203,5.211036533619436,-2.9026116637223436,-15.357622827263356,-5.884244809791542,-28.17702172236567
9180.0,6.006708944089038,13.043725073882301,2.394330773885416,25.704947632356053,21.738459408735675,-6.592404785092663
9200.0,-7.166631026196735,7.521529280611372,-1.7073376250057761,-31.243198865592355,-23.039991985121688,28.84438101252088
9220.0,6.566691811447158,15.687308105703702,3.036088130696788,33.45110349039262,15.5804705929867,15.94138338208936
9240.0,-3.8751141731648224,2.765382560110847,-2.0309080363695546,-31.497713609325707,3.118330377622603,-28.915462859309365
9260.0,0.6895364944022693,12.225837633814187,-3.7159796910973224,25.30117938170326,-15.736160440330382,-18.439696733671475
9280.0,1.3248541215876761,9.507558866466068,5.010839179898738,-12.386412210945375,26.33888215482522,26.66997688678281
9300.0,-1.7554041559695786,11.731204189885027,-1.3216164724380914,3.1742479594822015,-19.417313914061307,18.777993884595684
9320.0,1.4190773612116476,9.657683603641614,-1.2359760594904128,12.106654103275728,2.9112467291266166,-21.02206118015158
9340.0,-0.8068141860159316,4.908898102343903,0.9206640765037145,-21.573703261866516,18.028711413402966,-20.49956717399397
9360.0,0.7742685998809793,15.913099674502657,-2.1848344591580213,30.76145519575122,-24.690577875523996,19.115555327533198
9380.0,-2.484663103112472,6.624465689102109,4.360833246429944,-33.03127552734679,21.279947828774905,23.666338382901642
9400.0,3.963667631764945,13.341905458079506,-1.2593345580627557,33.25591840684466,-5.4621541358748384,-13.12013452245625
9420.0,-5.56036034930689,2.8915441574591405,-3.756732223515793,-30.774371381626636,-17.16897927597246,-26.31635073351259
9440.0,5.765806490974367,13.752473550665018,4.480122252287546,18.497026720160243,22.398328568336733,12.246824216027397
9460.0,-3.450197328916839,10.809080417867564,-0.7025315737259016,-8.051684506107147,-20.3411298600182,30.3978067535854
9480.0,0.03917703208941184,8.526803057874734,0.26357911549776786,-4.326372492203628,3.846352772907752,-4.554175776415489
9500.0,3.7896743720243293,9.76344684592113,-0.08022006749049451,16.37809957073136,10.598596003899678,-28.030878559969754
9520.0,-6.343006378830564,6.317624746282485,-2.864549290261486,-24.241461730000246,-21.659298472382773,1.7125835395275144
9540.0,7.027793530343545,17.170560054164927,5.058593647728955,29.082050654570587,23.431635460058192,31.40583206686275
9560.0,-5.386136689569923,5.151394357930162,-0.8675466647714127,-33.82825578939924,-5.687515353960902,5.693566056627942
9580.0,2.5768067972578916,11.87420292010795,-3.8078793421856916,32.33292685693966,-13.843587007286667,-27.205828778055213
9600.0,-0.23379041894738012,5.869259114115552,2.9291324868549835,-22.96131195468504,26.467222980453005,-5.085488316842341
9620.0,-1.0777455751541924,14.249512335230555,-1.1205825083055423,16.471511799380743,-18.64774966169842,30.37288584910073
9640.0,0.9140873752611267,10.55398931375294,2.044245989251667,-3.519195987416021,8.377100719572816,7.274320576631441
9660.0,-0.20176973593610098,5.927746319892342,-0.42284051966635205,-15.31573749807487,10.471557338081075,-28.729675564545833
9680.0,0.03984162096425331,12.124775437752007,-4.386676198850321,23.96004284798364,-23.47834987943061,-12.972264293522748
9700.0,-1.556261115507719,7.638357915529603,4.902494598651127,-26.912885603908375,24.72934517753496,26.987898526770625
9720.0,2.9248466302239686,16.38792395854354,-0.2381240896827929,34.662628697219056,-11.072391054193814,17.414364166923676
9740.0,-5.185164839503557,2.9655202407502785,-2.2469651796163044,-33.64901188058065,-7.547399431096781,-24.915881583529128
9760.0,6.409510718963227,12.215979915271081,1.8387484757753598,27.74864371670992,21.644630697706425,-22.455314773778348
9780.0,-5.223739944032957,8.66684472782868,-2.1105035286922242,-19.371265404908964,-23.96401017848047,19.787404333403355
9800.0,2.675349226190608,12.398683145086224,3.573532907053863,8.997479357340918,11.679648307616441,22.268274290214872
9820.0,1.6760825465682414,9.198254747631825,-0.5065981813870792,6.92514660092565,3.433639371522339,-13.520072655867864
9840.0,-4.621864715023329,5.122482538065157,-4.731215805228526,-16.920037432504245,-22.57284814264886,-27.516362967610874
9860.0,6.349742165361489,15.064941496837045,4.083263710889969,26.995052037968573,25.346247834571088,9.584002788580841
9880.0,-6.770908266820057,7.104710856760471,-0.21837721509370922,-31.045495197777836,-14.249317314082834,32.937240812093435
9900.0,4.278987218484935,14.408408791560175,-0.5462474462308695,37.04864867693706,-2.753644567035196,-7.569188026936501
9920.0,-1.8002968353006263,2.9957465117549282,0.8564025888086083,-31.78717726171162,18.68836793745046,-33.18904544864587
9940.0,0.13446574675384243,13.565680468321068,-3.1078567738780176,23.61431874786409,-28.716747433194712,7.718119517101684
9960.0,0.14393223250169757,10.699209389145615,4.572729287650937,-11.086067508544547,16.6344397428441,29.93019204989018
9980.0,0.14422815000902073,9.939468980100491,-0.2953833951461502,-3.5534402930196,1.0531434687080192,-3.2468357370589804
