timestamp,ax,ay,az,gx,gy,gz
0.0,-0.052022235624710825,9.691996602930027,0.06675615417295779,-2.4154269107820583,-0.5921535313694216,-1.022548886712688
20.0,-0.07667077367956576,9.323459193196632,-4.236853671649179,16.50414117576243,-15.806213897508455,-26.859618572318194
40.0,-0.3747290587748111,6.2702596042582135,3.471988489125886,-24.203357303904195,25.642000172177664,-6.8532816332733395
60.0,1.7922380018362878,17.034478235726677,-0.663043931072663,32.18548099826171,-18.024827313836226,28.85268343589955
80.0,-3.805451999385955,5.439012005270042,1.2581583264938698,-34.47619836428879,0.5788510466875596,9.355829950965527
100.0,6.0316261771901125,12.415305319571003,0.591661034932836,33.513377256625084,15.616373918967074,-28.11607823550623
120.0,-6.120539055963061,4.842246660704042,-5.092182994576922,-27.03478068746416,-23.13599784489439,-10.475651906458053
140.0,5.017821119958671,14.678255127956689,4.811754618168354,22.525662616190186,22.284352829604913,30.57236150331316
160.0,-1.295003104372653,10.221393789766877,0.05073804455588965,-7.947624328130263,-3.265473446137941,18.831771481668937
180.0,-2.5044157520328842,6.905252433444247,-3.2842796097310782,-7.4734128034494205,-15.358094346330343,-21.18401752695804
200.0,5.086119101805175,11.08605736655525,1.91679275998598,17.49787875026638,26.24152698854587,-20.51960566595587
220.0,-6.389459001824338,7.405764441692185,-1.469411282177798,-31.132297810763617,-22.530040114451143,18.432110139983145
240.0,4.925502729097837,16.366086029416575,2.2047566408982426,34.08758756620215,5.055574843394135,20.216099589731606
260.0,-2.869878807723709,3.434280748977841,0.3476836354089678,-33.534384480002934,9.237188783372648,-13.593243004081724
280.0,1.1163740277343441,12.070197425165048,-4.866555593210531,30.06489460692289,-25.28952511109752,-23.595759057544342
300.0,-0.17434379742260292,7.964849241517724,3.8351255016819454,-23.521972665086835,25.3022325135895,13.956221965526055
320.0,0.2851127604238964,13.997749250622997,0.26539705881779146,14.584623435279743,-8.118315660539041,23.718440013675767
340.0,-0.9779848030781743,8.759799624329979,-1.6966341549145083,-1.0305870447262606,-8.192365409910018,-6.142683706593102
360.0,0.7958855350968248,5.260329341901594,1.3462189194587006,-15.83043864606487,19.177935817253328,-26.452796183985154
380.0,0.3060501875349296,13.953605503332895,-2.807212400413088,30.146557120132442,-23.578123944485732,6.298024863015262
400.0,-2.6888999301706815,7.930635655115427,3.581367624475896,-31.484334552393406,8.101087527927689,33.032005232883364
420.0,5.213608699595511,14.675933288121177,1.296552105475838,36.89914579394033,8.01779697894173,-0.9772482998318959
440.0,-6.912527581773629,2.943389576176484,-4.842547027319431,-38.34725383833687,-20.93137870651295,-29.017481044838927
460.0,6.283529863225675,13.30100441091102,3.183213269646831,27.308727416168477,25.68681572235043,0.7012908992092242
480.0,-3.7999188057458433,10.026860345934915,0.3495815875143103,-18.561334070970005,-13.080876974125912,27.99387152217418
500.0,0.24113344546863671,11.003874005330514,-0.34184292715899045,6.259526231926321,-7.177789116065578,7.466715731932757
520.0,3.4872981862563366,8.532005555465863,0.9475832938872178,7.648888793974253,18.506032618705433,-28.956290229397005
540.0,-5.184550812952487,6.508733108591325,-4.294767620734793,-17.610100472325,-25.596000087217806,-11.86253843156168
560.0,5.7084018198355215,16.24641458265767,4.222147567989329,32.246057566873624,12.93100814096243,24.040139291043065
580.0,-3.8985263598692854,6.272632634826116,1.410077549122588,-33.36067863483555,1.4288890873983062,14.536841193029758
600.0,2.398981912768699,12.705622086128267,-4.29828394855992,34.383683408255145,-18.62943296940776,-20.832538616008357
620.0,-0.8898467252586055,4.061946634750299,2.1653665580204615,-30.33539651706445,26.110960321146894,-19.58032037327828
640.0,0.9172713044186949,14.601056637817075,-0.8703812210359034,20.48822334894477,-14.963063918232532,25.209775956111102
660.0,-1.7072155631270114,10.14114783962394,1.3579473555601829,-6.1690715196044135,-1.4531636658186777,18.8358110348212
680.0,1.5535171481908359,7.97012665095285,1.6099093336676384,0.11158892765636308,18.704973388416022,-15.367513609223078
700.0,-1.069087642314153,9.603131911794096,-5.06474122858855,12.23778314881697,-27.58701823254227,-25.287585940351395
720.0,-1.1882701704836298,7.638951638137206,3.8514877252914093,-23.19113261477294,17.90686461304624,12.644943045255362
740.0,3.9140617544949636,16.69580430347157,1.6521118567292312,30.37338053018046,-0.6805913908331132,30.550863447693487
760.0,-5.947848306438649,3.6489917642180596,-3.389100435302819,-37.605385343838215,-18.049060992016038,-10.24424386256987
780.0,6.892163848148181,11.976613215561834,1.8341148512386336,32.35688840418471,26.332145576292127,-28.28232878180776
800.0,-5.861133790075633,6.503073674599461,-2.1703551680854223,-26.0037966374932,-23.227733164351868,11.18128570233862
820.0,2.9879837430665113,14.656761330763118,2.307842170129564,16.54500908386846,4.362684031073332,32.124396943049135
840.0,1.0795229606245829,8.892414952198209,1.6912070586608552,-3.8682332377590782,15.678616059769407,-2.6635392288015116
860.0,-4.099454544843895,5.837461415128092,-5.584326581565324,-7.261176879385568,-21.3828034278141,-29.456038557672237
880.0,5.324251118521744,12.747760235410944,3.0463023740848496,21.621336231991382,21.06500607842224,-4.88479126276247
900.0,-4.3939286234943244,7.852126346956488,1.128069934605518,-28.69491581310407,-6.881144868505119,31.47384142606498
920.0,2.8568415127103353,15.23200606853215,-1.4251882795365327,34.400203370223394,-11.18788696257585,6.857123778100487
940.0,-1.777379491194711,2.833384939362701,1.001972023282335,-33.88462483281912,25.62448757728815,-28.084323838680803
960.0,1.05690185064108,13.717388524214213,-3.940590411646787,32.67093294221575,-23.87591135679384,-8.344835332967575
980.0,-2.0327261302531423,9.50740456300476,2.929665040555999,-21.216532195021735,9.386930336681363,25.73602595081476
1000.0,2.6307546140889007,12.411939333313727,2.2287594110450017,7.38570899131075,8.722512052380495,15.384297713313137
1020.0,-2.767199623527728,8.3444512630014,-4.902804627816815,0.35046327931350874,-20.62641815206581,-25.394063553463347
1040.0,0.4488572042962283,5.987575293225844,2.0780524321596254,-18.506983503789122,22.340613742584548,-16.479092765353247
1060.0,2.038461533973954,15.515924160861589,0.056752755710936784,25.87751019726783,-13.732853188944476,22.714559555725458
1080.0,-5.307147005921851,6.94751851432413,0.5493961534209797,-32.766191870654936,-9.447657532923168,21.131693128367633
1100.0,7.190176563234756,13.200163345628969,1.7044112802602127,33.36254982883511,25.331188616104335,-19.47087968400866
1120.0,-7.256261849033151,2.8290380003667046,-5.10978211436082,-30.396387075374108,-27.037573562556382,-18.348184696799088
1140.0,4.592518003652512,14.529169022519092,3.4308373310549203,27.651055119513234,13.342100498794494,16.024956249261134
1160.0,-1.225109179720561,9.76269321659664,2.2010115808977915,-14.379482762090507,6.518933639738593,29.522714127011188
1180.0,-1.95557553127544,9.162305155255416,-3.654086214100555,3.2925467818432193,-21.629422973825722,-10.765499333967664
1200.0,4.105399011824646,9.016919206326808,1.3712232753998754,8.2743875505243,27.25446609930837,-26.225452348422994
1220.0,-4.731078466058654,7.464499723586653,-1.592694872774182,-18.25111787385503,-12.031432356102513,7.626899186873407
1240.0,3.5695901499721527,16.771537477593792,1.963902930495944,28.331466080861446,-1.287344214470904,33.7600812933298
1260.0,-2.204308880662464,4.496573547642658,2.6476628882287057,-35.50887941364986,15.98731281164966,-5.0906543617349715
1280.0,1.3445833745884694,12.230436545534555,-5.326264390028987,39.463549424088995,-20.99495564601601,-30.61574192609669
1300.0,-1.8959872096959218,5.433260453589008,2.577434669394466,-26.832043892063275,19.27504439674993,1.5130100522953651
1320.0,3.103805834442178,15.247360877970738,2.2370232013067874,18.752579596586,2.107028709732958,28.76778299018427
1340.0,-3.122434210814894,8.738184412408327,-2.052963582646347,-10.316509412187832,-17.842697893980233,5.786417322698377
1360.0,2.414542451845537,6.7535832080088065,1.3467681800858058,-4.377215070282572,25.617612851980446,-28.52853122148986
1380.0,0.015043118152640728,11.502733003604783,-3.118092672347536,17.59600764189807,-17.55396349009975,-9.442697331087599
1400.0,-2.9595603626249383,8.033871455606226,2.211057815737308,-25.75903268730815,0.6602328259130084,26.957806297060333
1420.0,6.204941924012609,15.405541102486742,3.2134484970823234,32.81762199664511,17.425487396874235,13.468069077970725
1440.0,-7.64756182142589,2.719970909432319,-5.39225436478864,-35.7988221556432,-25.245725292838287,-29.469877619759902
1460.0,6.325803634331228,12.923516867919862,1.7885579851140732,31.77424216834176,19.635327609050545,-19.43394351993139
1480.0,-3.806076484767464,8.21351208530578,0.8813750846084155,-20.24815626963679,-4.464213086788853,23.536711420573685
1500.0,-0.20567109065619404,13.566928440692816,-0.7853605362468884,14.679485991499444,-14.656294754931336,18.192784415798457
1520.0,2.6293404142382455,8.149707576109424,2.2390827029061104,-3.8511304288511568,26.964796780885823,-19.26931852148512
1540.0,-4.040024772949731,6.24410262639624,-4.650408075017036,-10.913520710644132,-19.469205684144185,-22.29557223344612
1560.0,3.7908215214586836,14.431338914542671,2.384627568941132,28.88327127255204,7.707548066282741,16.447991106881897
1580.0,-2.7015540919070684,7.807308818984921,3.252199241090776,-29.006961729551286,14.207515544147821,26.815952295752886
1600.0,1.5485182212879072,13.67356402809608,-4.407338303962682,29.26641739245197,-26.25506115201767,-14.442692420409724
1620.0,-1.8755528346942436,2.6798955410665086,0.8125336523975343,-31.79842013216886,23.533534517163407,-26.99793702929796
1640.0,2.689544207636081,14.822260117422488,-0.5020991222200393,31.77476079625003,-8.031911974833685,12.5343193418956
1660.0,-3.362149799851598,9.698690961530403,0.6849309824342223,-20.62997682359293,-11.494985156787973,26.944312388103498
1680.0,3.7285056915346915,10.576671730016232,2.6396106032853703,8.461509435431172,22.469005005411884,-6.089430260160207
1700.0,-2.1881370661567248,7.851105895381008,-5.213539244272577,8.671984932044575,-23.00896819346897,-27.905589982456043
1720.0,-0.6937762932203835,7.418790559804631,1.7133822964759085,-15.018215441504966,10.310337208527788,1.4648010458719003
1740.0,4.7020290255868895,16.12800951254921,2.811858935736814,28.23528191821327,6.635066796148348,29.25301094615771
1760.0,-6.693873329070142,5.314698699385407,-2.564793754897375,-36.33184748377669,-23.8492159330805,-2.2184218828346984
1780.0,7.384773216787275,12.31074268164927,1.0531732522634916,32.27268248328479,26.37448086260559,-26.104484657722566
1800.0,-5.572851833098914,4.385791616691767,-2.138439839081733,-29.64400586029912,-13.934067384825356,-6.0121004509949705
1820.0,2.5982414344945135,15.672099130730052,1.1269289198908745,24.27813986062052,-8.560069252641542,26.90219269366131
1840.0,0.6111238956243367,8.932358683498583,3.4213077664636105,-13.396291313053588,19.787693971782303,9.414884799404904
1860.0,-2.7146229829801225,8.11318748765288,-5.331327197676176,1.989143612038228,-25.36138599373563,-30.038221258106248
1880.0,3.413785833654089,10.340936503829148,0.8633596433076793,15.670054141044611,14.916086984521424,-12.144286853583452
1900.0,-2.8275837040238687,8.671781107348902,2.045309268351146,-23.366013157727732,1.9648466496493473,21.762455584587908
1920.0,1.6330230301679918,15.998093659264159,-1.4749988657444537,31.301331031240196,-19.15610136899064,19.567501260950944
1940.0,-1.2759496868281694,3.121644821213301,2.05669085956738,-34.78161026734452,23.627836536532747,-23.964127243738027
1960.0,2.395022651625375,12.887910866181807,-3.6976417082111026,30.28575072960404,-15.935979124312787,-20.509319431131672
1980.0,-3.556156661551901,7.661552176807939,1.121518688147412,-24.08931604990505,4.496001299297002,16.082378317741863
2000.0,4.71443273436415,14.31665033388187,4.233543646097981,16.449419831092982,17.74720897014555,21.764479460731316
2020.0,-3.768641717223083,7.685104878183396,-4.674266937126499,-6.0065146365490545,-25.4303551683981,-13.541701546762816
2040.0,1.5286229668013689,7.011725618939479,0.8006318701953563,-7.545968538146492,16.340107631282816,-28.098389800177216
2060.0,2.2397996341567614,12.946145519481727,0.2900482842976414,17.945343022712187,-3.8974775564574404,11.342737699909042
2080.0,-5.602682183810768,8.498421628654853,-0.3269222668276024,-28.918906905904574,-17.01529166789508,27.543808420398662
2100.0,7.143093146776595,13.94426086941567,2.8414892767013615,35.31054923159619,26.799222264826,-3.541700541027412
2120.0,-6.844204385525985,2.3785441827296308,-5.265011829439553,-32.801871800443934,-18.617291616691194,-32.46888329979905
2140.0,4.700429354890534,14.73509453913587,0.8496787662484847,29.672756209527233,4.926393039792771,2.9096394895097535
2160.0,-1.2736012283825684,9.083252322298575,3.9389976644401132,-22.43373943381611,14.05628722386283,28.723006078345723
2180.0,-1.1858507806389436,11.457604420019429,-3.296769156276024,13.097962701591275,-21.23875632264554,4.410195978902173
2200.0,2.8168692328959044,7.6289781587780245,0.7908184860828478,2.5243271130759917,21.625354585255053,-29.944430697967253
2220.0,-2.6486907622363014,7.409194854411835,-1.2884313681819095,-14.001913258129004,-8.62404921198234,-6.163732272527522
2240.0,1.8388663306239768,15.76464101996971,0.06394153142044201,22.411964986057786,-10.634618035588934,27.988444404897937
2260.0,-1.1716829338864476,6.196383574683312,3.947487497664696,-31.107131438539216,21.745683338630194,11.050191951684646
2280.0,1.7868321639774112,12.736067844748414,-4.981473839299624,34.61471669359857,-18.916266504240152,-27.609999139513814
2300.0,-3.2412185668080515,3.9051199224345523,0.3405285630483874,-34.21882244880556,8.708015563333968,-14.583072196174522
2320.0,4.521717811551334,15.934508695034811,3.272666852369163,26.987075616609708,11.671553292942987,27.994995776350322
2340.0,-5.070969293035431,8.624201305784258,-1.9082184942545564,-16.55848039726161,-24.12016204830837,18.124795846794314
2360.0,3.4636916408743073,8.817292555063295,1.9104953733132102,7.035422471046529,22.723336936396205,-21.801462508462254
2380.0,0.062276103533453975,9.10794515367657,-3.131308174554333,8.295940855457458,-13.167510117517674,-18.592806942253898
2400.0,-3.455343124349301,8.525071537356078,0.1350737978746463,-15.544247218653066,-5.09128218958406,21.853662168709807
2420.0,6.660899058600494,15.581439839284338,4.548892554572682,30.284544013643234,20.397505346867373,23.880306106524163
2440.0,-7.395449284644736,3.2855520779415643,-4.518446748784929,-35.1784743764609,-24.412763441790293,-19.57573190018166
2460.0,5.8993251237980875,12.33103817024967,0.15357312476025609,32.16686907726701,14.339163791739448,-24.637787614293106
2480.0,-3.530691029461215,6.482342536874487,1.6939765147802848,-33.21811192863366,4.7143476201359595,14.815741624591793
2500.0,0.061243527349958526,14.852981692399926,-0.9954853140974987,22.61910849624207,-22.27261016131498,27.144114122504067
2520.0,1.5972546910371417,7.772800301227322,2.7863203575809217,-9.238516495668867,27.346495572001388,-11.237704684081537
2540.0,-2.1988401736124974,7.3051505647296215,-4.051421588214273,-3.6112542864295305,-16.662539369841443,-26.75321153689662
2560.0,1.432855453063765,11.96931711120438,0.0010541009740676621,12.173663705568346,-0.8880007949934803,3.519192187112866
2580.0,-0.7052739055360816,8.5207297207279,4.3969456497251596,-23.430182022830966,15.895246994659685,32.15978134784377
2600.0,0.83974489967568,14.39489424362067,-3.32664556964104,35.61635901870499,-28.241744249232326,3.8707142016711487
2620.0,-2.54373439523211,2.2923566758635587,0.7852269961312466,-36.67304532286034,14.60084993942245,-31.638632343104103
2640.0,4.577234984653783,13.997000992520197,0.15798340739850178,30.956924198723588,2.283021516320399,-4.759327137600337
2660.0,-5.195847707460437,8.530320252426597,-0.23740546267576762,-26.237726593795067,-19.960340776240148,28.871074147956545
2680.0,5.137041141310877,12.766881601649994,3.7429114925641693,16.435223750573655,26.300209828924817,6.252246986259117
2700.0,-2.908914187022755,7.167978598135968,-4.41741669398786,-6.272836559379299,-20.019329743672568,-26.108391798712855
2720.0,-0.961089157790626,7.460780466071655,-0.8959964459217546,-11.181562650255072,3.1055854531464053,-11.593725874410605
2740.0,4.6723716790553125,14.962109516598199,3.8817852888429267,17.444219667928916,13.389996157414657,25.005508101966488
2760.0,-6.926693202495874,6.7374966729262145,-2.7862079145147405,-30.675855838951627,-28.25600922494879,17.113459165548896
2780.0,6.646409216631547,12.740521616087957,1.319033700434732,32.97423192484619,17.762113797471937,-25.662347824536223
2800.0,-4.738072227426944,3.54770661748009,-1.7634760511051537,-34.65246031271353,-4.29904552870406,-18.18571951545067
2820.0,2.124749399932904,16.078339976568696,-0.7657848150489313,30.12408747684858,-12.714846671051845,22.188373632178752
2840.0,0.1496821233774956,8.362539816335602,4.89201406292981,-20.6995449688979,26.17390179325725,24.689278623427743
2860.0,-1.523063356670012,9.712828325273493,-4.20973885580006,14.343404661497045,-26.744540934644924,-17.366080944448157
2880.0,1.1551067262616317,8.204451441112937,-0.8483063680572615,4.9546645357874635,8.915608415589901,-21.03157191690416
2900.0,-0.5291856093721272,8.571762529380504,2.6277317594707554,-15.690480760879922,12.815068401390882,17.387232267590242
2920.0,0.9177403282061558,15.523614418221152,-1.703793119254343,28.327896164280105,-27.863732178243772,26.798025724296615
2940.0,-1.770515032592405,4.275259633472284,2.792879450032098,-33.313658278066356,20.74387126350391,-10.32495273167059
2960.0,3.637973274940882,12.357232273162344,-3.1904969030434054,37.688855522208435,-9.94901770518638,-26.968268318756373
2980.0,-5.243595673651107,5.717269144966401,-1.2065613912614614,-35.160928352637825,-9.223785650566139,6.005920003217664
3000.0,5.924050585549232,15.865652338915954,5.334254045858548,29.372604348549537,20.451431904629686,31.677912678111383
3020.0,-4.672950061286872,7.714889423834076,-2.915432367942126,-14.579138893123298,-25.36606953328456,0.8242395582317152
3040.0,1.6032937453565452,7.7152886563073055,-0.1932279334403017,2.808412136365395,14.784127547354064,-30.2975859574937
3060.0,2.3661403276934876,11.17651190960297,1.1875774260242344,8.589001320765838,6.864793412200998,2.6448937356764177
3080.0,-4.987768755538429,9.349077634996506,-1.1982048282531517,-20.99809858517434,-21.22478957686225,29.24455089210491
3100.0,6.73463918053583,14.96376366590304,3.441815300879838,28.147629264184832,20.835049311178715,6.765820865733838
3120.0,-5.644146697449341,2.391831135918185,-3.764363973686421,-31.633306510410083,-12.744769454379586,-28.39762379145545
3140.0,3.716290918541491,13.94564730087395,-1.7645320233658353,33.16018099840008,-7.712301007123845,-13.144666749006666
3160.0,-1.4171057430523,7.89534269455501,4.727869658126346,-27.171583312132828,19.560307153399606,29.952183885521418
3180.0,-0.6601867061860964,14.020580968667245,-2.308225501363566,22.817448961655135,-22.26210451574162,16.369933902056314
3200.0,0.5582563387517411,6.476555597055798,0.34808699478682664,-11.412442882936574,13.122234645791089,-25.043788016687422
3220.0,0.07033447858506894,7.653226533835272,-0.9573718741463638,-6.104425605445416,3.8732503385662795,-14.697689990966794
3240.0,-0.2713477906932474,14.045291842780713,-1.3732769040351225,17.4766218276478,-19.790868525884434,20.269270126700665
3260.0,-0.2734483111239624,7.624598114108256,4.940625707779959,-27.560133308305645,23.72551028190644,20.096804289267816
3280.0,1.794983829518447,12.724595036682272,-3.597627634585967,30.712451572833565,-13.934603943450524,-20.13604062016258
3300.0,-4.711934362572106,2.882505414351306,-2.018381987971691,-35.93451628638159,-4.333657454363201,-25.287359784730434
3320.0,6.467743231299052,15.62433641626498,3.7732323886640207,34.35818439560879,17.765168874537768,14.687662900272745
3340.0,-6.162330825996016,8.546417067424468,-1.894707577973145,-28.883924774003592,-25.181243321202373,24.977488800165528
3360.0,4.351139577823536,10.959329805246922,1.581717904480247,15.047877000166856,19.537978825916536,-11.10014168837151
3380.0,-0.7021297691815862,7.052553204065303,-2.018030769209046,-4.062071473580047,-2.279304485413369,-28.18539715444674
3400.0,-3.2756832601601786,8.671829288252715,-1.8241501073190984,-9.521293177859619,-18.05999618658757,10.79701528335708
3420.0,5.553827497418977,15.314996947666655,5.207342379004733,21.45946839730762,23.522967245619522,30.676061301299864
3440.0,-6.2554538960603425,4.815837374633757,-3.134212183345544,-33.49702002038649,-19.556977868973696,-0.17837257650783478
3460.0,4.886968628994455,12.39067194944038,-1.3326794995727895,32.96204028616829,5.456525964000004,-33.11074965065597
3480.0,-2.657462814920107,5.091208609513365,2.009407407334395,-35.686926798631234,15.441990378691901,-2.573177835805482
3500.0,0.7386976002722816,16.580033174901253,-1.2904232313070234,29.38012775983747,-20.63570676845344,29.686159059914132
3520.0,-0.1388631161098815,7.118174325079327,3.3079018109227736,-19.530600852516667,22.696558977504843,2.9545200289500686
3540.0,0.3131865528247858,8.635806963949522,-2.7869626444407207,8.934424146019605,-6.493327463348139,-27.685350324820757
3560.0,-0.7887093936332454,9.787097805974337,-2.7663662464296808,7.959981494569345,-14.314188272179695,-7.256114407796057
3580.0,0.47068469762716936,9.657809071818209,5.131379814600264,-17.024261908474646,24.370893785962103,26.026663914917687
3600.0,0.611527184119693,14.816583260609383,-2.3541300120990707,25.938467220475086,-21.056858982457577,12.880647724687346
3620.0,-3.4951370749667405,2.535983168438104,-0.3948346415696993,-36.80576283210875,9.491567748552665,-29.177082357236195
3640.0,5.6858957079475685,13.430123174702262,0.2344816238607415,36.578618917235374,12.38713274542061,-17.43071728100859
3660.0,-6.837776935166675,7.381840259273225,-2.0527200522005105,-32.68683986162697,-21.429795946951508,21.662163532207366
3680.0,5.90603559107532,15.059466979413868,4.789817760302084,22.98641448373305,20.36092954470009,21.05523422481481
3700.0,-3.444764606937581,6.106195214806204,-2.9779081954912927,-15.738119806801336,-12.547569803582082,-15.853711838977041
3720.0,-0.647673622903649,7.926042800528713,-2.8473454324418563,-0.5339436682028359,-8.503594575902689,-23.51252945378221
3740.0,4.050004795646448,13.07855502615705,4.317447912778554,9.858291398186559,25.16856722303965,19.983806979902766
3760.0,-5.868911868885213,8.365022363247393,-1.5442105823386654,-24.877273682477515,-27.256066081192664,27.07500129434007
3780.0,5.001634054776395,13.286203117838298,0.9370488467540381,32.17844811747804,12.23149549280733,-12.668230056444312
3800.0,-3.81325809429897,2.4140264793886184,-1.2702008171444972,-36.19561129619267,5.39089290779344,-26.606753675869907
3820.0,1.6421085860668225,15.347567691970012,-2.452572671601784,34.23889103422177,-16.881773298851936,8.51385179197935
3840.0,-0.9039712233997464,7.921498224555293,5.513976954262117,-29.7219581984439,23.30605483051879,30.79226738001986
3860.0,0.6211383955642417,11.75693572064945,-2.1857751904178357,13.328187576010459,-14.788398448499137,-4.042009177003382
3880.0,-1.2512079197158863,6.257928167423865,-2.2095346324713647,-6.639742082578914,-5.691889428630268,-30.79275738222126
3900.0,1.6301740240429947,8.819558635242243,2.6081558419946353,-6.8460895794809975,15.838207892701398,2.010765313675937
3920.0,-0.2717991630468668,14.85772604875305,-1.1331763110489046,19.657009491787935,-28.200315549993174,29.993296806149843
3940.0,-1.8162642076185238,6.479899252871409,2.4709758327281084,-24.517176371186398,15.03927777792814,0.575193312705689
3960.0,4.664754594695057,12.141236375537929,-1.58467101565209,35.32711579686535,-0.05746822328133505,-30.277491190617646
3980.0,-6.534022707100161,4.182166962925267,-3.445612136930489,-38.28928160511535,-14.825747702457372,-8.699028700854
4000.0,7.26849370769746,16.905509348159683,5.528735583423052,31.508652719241226,25.27831691763632,32.20012655044038
4020.0,-5.144326385887629,7.410074361996103,-1.2823031607570925,-23.762748601979368,-20.623750393458273,12.636132352146086
4040.0,1.5378029381967506,9.26398697535955,-1.6553325066736557,13.221518164502342,2.4779188683084614,-26.597292294124877
4060.0,1.8053120792896107,8.497304809666957,1.4811694004126186,0.5148858337868711,15.976084748709223,-15.916474635598947
4080.0,-4.236141926144845,10.12783700342814,-1.8057101237050723,-14.71145619259019,-22.932653878223523,26.47712364746794
4100.0,5.297925892105284,14.761264429910597,3.8457978681499587,23.270690324684516,20.256569617886736,19.53736940470445
4120.0,-4.08571181202135,3.864448299843371,-1.7710109869314172,-32.28573709356238,-5.577521344975466,-21.097318740680084
4140.0,2.87370664134549,12.891789886113454,-3.4422324221287823,33.76524099227172,-17.205780381755794,-21.090821050691986
4160.0,-1.1867356216905012,6.513396631404412,4.141621926417114,-34.95575419801811,22.529411957581534,19.64053115881186
4180.0,1.0754628312192207,16.00489117206475,-1.1119256963457205,22.320396568090736,-18.41973267259824,24.072563746884942
4200.0,-1.4344347211400934,5.662598760102422,0.028308785939212017,-18.58591525282279,6.2241641597382875,-19.081969989703136
4220.0,2.3452258365400094,8.228015757929949,-0.19935531683774355,5.6620051802143205,14.377661734201777,-28.356579052397386
4240.0,-2.0741502070672935,11.66537267562306,-2.4677660656968206,3.7006570328534014,-25.814881704315255,8.346445416071813
4260.0,0.3417528016166538,9.643949536609062,5.438360613557233,-21.037409365895662,23.18472574132083,28.985450937442447
4280.0,2.8610631747466964,13.45082514586376,-1.65345861381464,29.11189396746682,-10.1440860012114,-3.1287908970968896
4300.0,-5.432698050217077,2.5665527152933887,-3.4134927066307585,-32.4468351590178,-13.85536062278529,-27.18149570362566
4320.0,7.090783976236637,15.059576316273454,3.1882545822014383,37.37637136285738,22.088860408708218,2.7333391050170546
4340.0,-6.758506990207261,7.97898401465704,-1.209363981321175,-34.03162824279377,-25.22463464087019,30.553251113907603
4360.0,4.345688198605007,13.23151276298592,1.117948241788471,23.235608714925874,9.572279421239916,0.9317038189375686
4380.0,-0.6526985018965352,5.614402679556294,-0.7958539028179327,-13.544078963535323,8.042947780529964,-31.215909052085657
4400.0,-2.798910484721233,8.831383115579406,-3.561449446751667,-1.7901696554767204,-18.062759526931323,-6.177717516042347
4420.0,4.796328272585574,14.364566255170349,5.252061358232955,15.327977513396405,24.245524385556372,27.64005667801759
4440.0,-4.8015861584855015,7.305270314373695,-0.9468944913850237,-21.678221768355442,-12.6968162813282,12.273359006468803
4460.0,3.6099658011377618,12.123147475897506,-2.5206833276337144,31.92482417735195,-6.156495124864838,-26.91974127895188
4480.0,-1.8334848758507019,3.375728330335156,2.3420960198600946,-35.5251870903724,17.56233759088067,-13.241502932151324
4500.0,1.4672981114339807,16.678467262573655,-1.7991951897286529,31.52855116844286,-25.393747367763428,22.829501773856567
4520.0,-1.5653580131314364,7.897978994621952,3.472542062519122,-26.05531243159119,18.63128311776212,18.806552628451886
4540.0,2.638071850055674,9.911439224160432,-1.136746520907732,16.742697660667904,1.7225079944668096,-24.208909255801803
4560.0,-2.6526378635091867,7.459606053458726,-4.191134247955431,-3.8208622198852344,-18.478523536068415,-16.594934076479003
4580.0,1.9423597393643688,10.195976464230037,4.946951896012671,-7.94507222402848,24.796703176651775,17.756076561545747
4600.0,0.9123305281927367,14.895564812591529,-0.5006337427418215,20.52317178448986,-17.55478301357485,25.75710051709848
4620.0,-3.530577632414416,4.093718631735808,-0.7337022125293395,-32.3971480701383,-1.667336952937928,-12.937591914946196
4640.0,6.48157565510008,12.56978614745287,0.8815314139174549,34.71541515721566,17.44550852771983,-24.30192715399194
4660.0,-7.3821957463631485,5.61647355848157,-2.8074191964432162,-33.94211497179205,-27.563225362845092,13.754518267989944
4680.0,6.147409811958499,16.352653328226694,4.206355239098495,27.075837651109374,17.068378998942418,32.084334869524255
4700.0,-2.9761349377947584,6.05003239255882,-0.35861776012075913,-19.883204199376987,1.5814558216428989,-6.309549999847177
4720.0,-0.4523555757564368,8.887456407474412,-4.060089974622407,11.090871472702231,-13.72126704323531,-31.158600344993985
4740.0,3.381115321782195,10.075057014966987,3.8463134505098138,1.035185529986408,25.37517236752054,5.305983289381813
4760.0,-4.085510979046763,9.969177319768368,-0.8423566840052508,-11.054825733357347,-20.05858998807924,26.553205375944316
4780.0,3.5149297196476823,13.570701480324198,0.6921098691365709,27.347571071652876,4.550523460404708,3.7257106524269803
4800.0,-2.293299294019267,2.472912069682864,0.10638421130842246,-35.33595364830367,15.71504694552599,-28.902096451244663
4820.0,1.6494590212158426,14.486826778087677,-3.8292216618137145,35.72893748746346,-26.635581149695135,-4.39453268067358
4840.0,-2.005321601858648,7.5878055736913765,5.142670541424763,-36.99529711459286,22.661672347350816,29.78946807403358
4860.0,2.6301854369800233,14.606683667807921,-0.0032548763708202255,27.84472396262365,-7.759542731088603,11.09623118943969
4880.0,-3.6010756609588404,4.643946811165949,-3.518078600252906,-15.895801235986879,-11.137708079020607,-24.006058240698554
4900.0,3.1066020553098657,9.288637899176646,2.1728663777410704,0.5497682917565667,24.696284385869085,-11.986797167854021
4920.0,-1.1655015715838621,13.58515357878557,-1.474501228290426,6.636051498860077,-21.509989309712477,27.829243620828677
4940.0,-1.5619687617089975,8.67055765269568,2.3377987651845227,-21.133971603782243,8.568670550461237,16.33470249029679
4960.0,4.976003492156866,11.961197412022129,0.5825824542930341,28.672132860437067,11.709589152199236,-23.673295778587224
4980.0,-7.259557825445371,3.1571004334888464,-4.3436832276108985,-36.596717996548364,-21.40611189162109,-18.72990074324056
5000.0,7.186264447979726,16.436813811635027,4.454550292844212,33.142632716902476,28.734904479404413,18.181391649888177
5020.0,-5.071149015609355,7.596014508917652,0.02523620470178939,-27.549407186869082,-6.902018932155131,24.063360092559815
5040.0,1.6166344748542716,11.453385253317201,-2.494485282814236,21.840601464244912,-10.220461404408045,-14.731168949920727
5060.0,1.1485859927932525,6.4927952019032515,1.4495507677241157,-7.2218111640142695,18.38874268451521,-27.128614348742605
5080.0,-3.505303544204282,10.090136211582603,-2.4117614844847495,-5.573881271335214,-24.43760947076214,10.770686424999145
5100.0,3.946692478961297,14.129855874877475,3.1647019565500933,14.673221446629949,12.410416527835343,26.931872324993055
5120.0,-2.5855090804686056,5.186470572301553,0.2573561875093582,-25.814342255783234,7.751672560117887,-6.9429233036687545
5140.0,1.6383612098031193,12.196179867185709,-4.8418428396274,29.865121326396096,-19.147864504679326,-27.914265113486326
5160.0,-1.72927620908406,5.328380883911088,3.8843005712386427,-36.85114152993497,24.893686809171925,5.188750815618576
5180.0,2.388135427767444,16.95283534080244,0.27913681070403573,33.82468261594901,-8.853059214488397,26.11661064391904
5200.0,-3.9004983869050007,6.25789677605405,-0.5360399201400046,-28.166154215250234,-5.938786381348366,-1.151210746358108
5220.0,4.5010045265085346,9.37868354809744,0.510903838333012,16.122083406977566,20.492584845278962,-28.719722624470833
5240.0,-2.926064126521319,9.104253757930586,-3.6722529432411357,-1.919847496726696,-23.64080394553843,-1.27375486215622
5260.0,1.0410239789864473,10.909132590280544,4.233746399563187,-14.338012449716501,16.647525558183023,31.852506440285836
5280.0,2.6209616331032692,13.2642496990337,0.6162991746254333,19.370086462902165,4.550193218114396,7.664899499947934
5300.0,-6.077612500982452,3.279284975567534,-4.185815824389274,-32.271890677930394,-16.553488604105517,-27.65374538736909
5320.0,7.409679043899998,13.907770014057261,2.605610066024971,32.54063176311108,23.610997712679715,-11.756441060126546
5340.0,-6.954986203210557,7.1114789650296535,-0.8548763432082247,-32.266264192227254,-18.346479239269105,23.096942103474827
5360.0,3.4961650437761382,15.078669925564455,0.7477528037104345,26.869155605715115,1.1772755799245183,17.076924871820637
5380.0,-0.7199270397047013,5.210706177839855,0.9303951837956307,-18.971669331229975,17.93178609120151,-23.96090786777841
5400.0,-1.697527276318979,9.247335607532523,-4.624975502075305,5.345848295361385,-22.780693476886913,-22.448985664628
5420.0,2.9060350365568555,12.235326180528734,4.523798881105354,3.052216481356537,22.67318107490583,20.043928082664973
5440.0,-2.643457837866962,9.454494725669091,0.8123006908571753,-16.450595346883954,-7.33750894915319,23.802200576162956
5460.0,1.6139741144977533,12.190008088760083,-3.2728174464935367,24.31854218794953,-14.074360417892878,-19.27285819543654
5480.0,-1.1187686557924215,2.9691451419050328,1.5526264587035299,-32.059398587659196,27.300861357327463,-27.817446576137478
5500.0,2.0543156671836846,16.270548103969354,-1.8486006668582267,35.85267376212531,-25.333941445248882,14.271233669000212
5520.0,-3.4236991329975046,7.973143165165475,2.508435065790492,-36.16016963096074,4.898894383119934,27.64743985733748
5540.0,4.695894626800922,12.436657203842538,1.1537925505795872,26.592130372236735,14.608851409310438,-10.916908269141247
5560.0,-4.655197713652288,5.460333844562454,-5.679975403793974,-12.613206830018685,-23.187444252157402,-27.635813212567744
5580.0,2.9381054545128404,10.554680246549756,3.198588513375959,0.40445502004937073,23.300081636689566,7.558698773434
5600.0,0.37791748566173555,14.050806836795022,0.8585750055979016,9.490613844786536,-6.406811402557601,28.270630462661007
5620.0,-4.171007236820082,6.334459615844615,-1.7160975872760094,-23.35466273823837,-6.5512958199627125,-5.130147913821023
5640.0,6.935494034594672,11.728006149125777,1.1532828863813325,28.790660107278075,18.951058715502796,-32.5586049025571
5660.0,-7.394527643267344,4.601270142416538,-3.2350209828697665,-34.49550569459024,-20.949905598209963,-1.8704119653951212
5680.0,5.1203353081495795,17.35513144177652,3.085774657889022,36.63609632494538,9.651567656893976,29.173930732151653
5700.0,-2.7440267569414365,6.431563513128835,1.6796139344040926,-30.302176031532184,10.574948926414617,7.4119245089549475
5720.0,-0.5104114052599331,10.149942969837456,-4.908916347960502,15.661160870110002,-19.09403512937779,-27.00023637944961
5740.0,2.0889660793176983,8.110655484047841,2.424182699213709,-4.896298176060332,24.111146847488317,-11.572454558123603
5760.0,-2.2431524938529495,11.457852837187998,-0.3499361239268581,-7.302005444469466,-10.853256978872901,25.73828080917319
5780.0,1.395700476676934,13.691467592256926,0.25424408065396675,17.67603849960543,-3.774483482214064,14.51107223755023
5800.0,-0.7221694847478448,3.8342214638884244,1.337890687532456,-27.84412747005066,19.5801827381364,-24.900090780578086
5820.0,1.52756668039373,13.07440059569299,-4.547266623843664,34.00691789549572,-26.75606145549341,-18.154947615297914
5840.0,-3.030711560526105,6.860000878733588,3.201383512593754,-32.58144447547317,12.42863605229111,21.317111375364746
5860.0,4.527588442262869,16.242607712357362,1.8254256081968623,31.085697292178143,3.1970544193038855,19.373658806207505
5880.0,-5.354419631220038,4.88351627492192,-3.854931772144172,-22.75589987256584,-20.505943984139986,-17.007589619924335
5900.0,4.470088429253473,9.911403286855045,1.8736502920452491,10.35017672262598,26.53654531688382,-27.453976627648327
5920.0,-1.9150989393538627,11.089812935732423,-1.097479953248446,-1.2880982383024748,-20.56445419845091,13.883052883932434
5940.0,-1.7511823598958205,10.187131117877342,1.7050964768670616,-12.56728732922225,-2.898008223838601,28.228417770291585
5960.0,5.2069344920587035,11.934355549942973,1.4643509578471834,26.873518803046654,21.778525059449674,-14.98348951990942
5980.0,-7.199344192732974,3.1062220013545527,-5.3491363876819165,-29.0969512074705,-27.389166586066132,-27.834134196319233
6000.0,6.75631088789803,15.503061002059175,3.387106523863225,36.44622553181477,18.492835426713413,8.492123679553782
6020.0,-4.317631522900477,7.390652908321995,1.9146167792002156,-38.64872192940858,0.40968174023861426,28.269408262683555
6040.0,1.260351308711849,13.41173714146465,-2.6088963981559603,26.69628315800761,-16.997625860932715,-3.0642709232621086
6060.0,0.8948427617388677,5.099847419081739,1.116598152870227,-18.89527414358389,21.45981645971619,-32.43929911351255
6080.0,-1.172886475792276,10.427294990625734,-2.6289249158979935,6.237804799091387,-19.043702182766268,-2.986039002096311
6100.0,1.245097541693242,13.122714811692878,2.1172862512684127,8.031957488006755,3.0378280826858117,31.419883261508552
6120.0,-0.365581028378319,7.5309884747477565,2.167882012828666,-17.32534524928311,12.966406036392478,4.901219490661037
6140.0,0.7030337610240164,11.506391536410241,-5.422889338390213,26.115767182530668,-21.429696855725933,-32.354947819867874
6160.0,-1.9481849320356257,4.259431699211012,2.5396464373831806,-34.993111282004875,19.721615374743152,-8.37021648720553
6180.0,4.021960583206864,17.319817753263415,1.0318896761487244,35.40575512226425,-6.138864226809874,27.678175394706397
6200.0,-5.584458198237664,6.627990788679634,-1.1874948958753258,-26.78679996115242,-13.039652833939309,14.121959485993282
6220.0,5.9114335005631045,10.80523168656637,1.470816872465988,24.873634239824803,23.48315193268628,-25.45918716384396
6240.0,-4.06634636880871,6.6923067579354285,-4.218224381645235,-11.399053189427134,-21.80088093167233,-16.480960434815778
6260.0,0.3890487695498749,11.522832870040554,2.4982351299706598,-5.062100730435927,10.684505293959715,24.75847984822401
6280.0,2.8376327443362097,13.168232981336367,2.8135962984526315,16.970077535031383,10.454464482603186,18.238758262791002
6300.0,-5.855715701649677,4.712352869294633,-4.338805342627702,-25.257906303253257,-20.539685820056686,-21.656891421449924
6320.0,7.075740024509056,12.39027699052363,1.73325115498657,33.90728255665124,24.21127398687208,-24.215212171243035
6340.0,-5.83340012028134,6.267557469740675,-0.0392496440952767,-34.303588471269705,-8.30006417984981,18.14179042396382
6360.0,2.9048933161922363,16.427857755099634,0.4551419518264994,35.749735032925074,-7.323788003540562,25.776306545463516
6380.0,-0.9914773299740596,4.900612811763486,1.9883570103768087,-29.169380282064772,22.330097597498085,-14.103102578364208
6400.0,-0.7133667254409174,10.23596315220094,-5.102678694693845,18.140227585393983,-21.918920882041444,-27.902481020299575
6420.0,0.5478247543246915,9.81558341746357,2.227216825445759,-7.409897378509245,15.256745628701786,9.11556325392892
6440.0,-0.2677516034851885,11.099225899731927,2.4647199089566616,-7.3913935418119685,3.9976704748894516,32.53148711508797
6460.0,-0.37064521263451783,12.436383750693109,-3.263361401069682,21.188150568815345,-24.43375434510213,-6.187269987790197
6480.0,-0.6561347651269598,3.430567693135579,1.4183743210687316,-25.745085394015238,23.78204836952127,-28.486575785010523
6500.0,2.91752566657243,14.345107373037592,-1.8755433191338289,33.58865733568785,-13.454961127824037,-0.2355914181361296
6520.0,-5.161828717750556,7.469398108388529,1.6860400196778573,-32.21200025867422,-3.7475984101659563,29.38736320770063
6540.0,6.155775912153119,14.609395408015818,2.953336146896743,34.10508933428762,19.825347129959216,5.7855328580918455
6560.0,-6.044851302533681,4.170185312694112,-5.528359973878687,-25.00421585061954,-25.087695217249454,-28.749588855480212
6580.0,3.1075972565560974,10.71413248334627,1.2313978563338956,12.442607512017325,13.890398409307878,-6.069613628865207
6600.0,1.0332510228732512,12.418505317088501,1.76828443779858,0.13574842161466827,1.2471691327784957,32.22742965672663
6620.0,-4.035516198790752,8.661325706806366,-1.7856655506546646,-14.9214480487992,-17.894714697681767,11.431849521926237
6640.0,6.001420535488693,11.318110494760752,1.6520206123173948,26.493982305546005,24.431179616844048,-26.360578697430295
6660.0,-6.478440178747077,3.9337113399557655,-3.7318182092867853,-30.691777558865777,-17.196344382529134,-15.989856947291551
6680.0,4.442385184114641,16.613848079081237,1.723499662246418,35.87963228991276,5.887207777616665,26.870706752668628
6700.0,-2.1592863330992222,6.759959654296661,3.6040220110225007,-30.56363992398973,16.672544873574896,16.194644112606703
6720.0,0.34895777192402516,12.02949965761515,-4.807248265046162,30.80231713384817,-25.77523187841054,-23.872719400867453
6740.0,0.339982245290226,5.363578978734056,1.1179073640742154,-17.04593227404843,17.61353604864127,-23.74111314209152
6760.0,-0.4203392147497921,11.695288015073686,0.9848922309651964,0.694693325674959,-1.3972355907924325,17.55160328918975
6780.0,-0.6345049312222693,13.30363361224467,-0.34316195028244256,8.582049681134082,-15.862449336117018,25.800552709386714
6800.0,0.22831643965092913,5.343003684973381,2.600298078079304,-25.23359177845178,22.59324409828321,-17.513827905760028
6820.0,0.9784952343157459,11.931272886181734,-4.523705597897642,27.656898991287562,-22.04023075128008,-23.413546816550184
6840.0,-3.605043751104873,6.1406866302734455,1.3829466626961044,-32.85458985864793,1.8669470101505996,12.80918919350772
6860.0,6.0887768254834,17.080463293568418,3.7444993228568415,33.17220902354166,13.045879816457727,27.306079385520437
6880.0,-6.809938254391595,4.890371815121245,-3.652100127228353,-34.18771300909671,-26.880665787123082,-6.295721973297035
6900.0,5.315066739990793,10.497063375359831,0.8656065806800821,21.97843927920468,21.884111684762882,-30.557972356766943
6920.0,-2.310708079344285,8.723392261178601,-1.055227509338081,-9.428828116051497,-9.81831439428414,4.655343476669363
6940.0,-1.571973479722534,11.924210610787249,0.3871234024816443,-3.915941489386201,-12.01461636828962,26.823533725512142
6960.0,4.707126445949273,12.553769634519286,3.91172287728062,13.23418448589158,23.193234506091443,1.4019467715001428
6980.0,-5.7347855778961065,3.5808682298832326,-5.177981423516961,-24.630884773084002,-26.438276924058215,-28.333219841089836
7000.0,4.9970652597307055,14.1994888271036,0.857066173017736,30.19459533642148,10.1815864743687,-7.357402968691886
7020.0,-3.39035578559706,7.244926800045807,2.9852063096075647,-36.5145491844767,7.3017335449736676,29.494607613841776
7040.0,1.4942828509060737,15.207741613305126,-2.5844880053110724,31.063950031483017,-20.430841015966546,9.852610402574165
7060.0,-0.27274359622364064,3.961168728217253,1.303290433472502,-24.826285161517504,27.69878428095138,-25.955658005617977
7080.0,0.5876319370923527,11.070788248246926,-2.382718767020412,16.44346398073167,-11.880977367642016,-13.368525834886352
7100.0,-1.2255031197210602,11.35644620956508,0.7628839442282338,-4.2155996875467086,-4.850396136450343,23.07779894182863
7120.0,1.1408766844499163,9.937006951181301,4.2119158771286465,-7.500348526380794,18.31423340551831,18.396376235107336
7140.0,-0.455735814015683,11.263204105672674,-4.885356319722662,19.693629305864036,-20.849067607220455,-22.143226092204834
7160.0,-2.3729404419566316,3.819423185954803,0.9800585109994797,-27.12389798280488,14.811814953873927,-20.55861692187019
7180.0,4.966127707426037,16.519819615860474,1.79103618913985,35.33296758102871,4.254995990072916,16.902216558553338
7200.0,-6.867404461122544,7.143611616288454,-1.1268378719517438,-35.72759778284124,-22.489596746948738,23.207316384591813
7220.0,6.690157114456088,12.953002479319139,2.2587014861998997,32.132748749508515,22.62333594459143,-18.96217272115447
7240.0,-4.231017260121031,4.8447585102949855,-4.303591642036459,-19.46816783065323,-15.586228691616471,-29.37206043378934
7260.0,0.899982164259702,12.052806368470275,0.5121022605401593,9.199857686623156,-4.166969526716038,9.203138474482706
7280.0,2.698978154653547,12.52249112851255,4.323902446890899,6.196979789615101,19.064606524382384,32.65492061115286
7300.0,-5.148441529222031,6.6459315511671795,-4.250206085892977,-14.705797366229271,-22.95293882354526,-10.291376941840602
7320.0,6.063133703624123,11.41093837918445,0.21646746048804222,26.302176931350388,17.11521826714032,-29.698560508010093
7340.0,-4.44467721357015,5.407612896427001,0.2701737692252515,-33.772495206308626,-1.152248273924648,0.42938967211018797
7360.0,2.425434702520905,17.135133965028515,-0.33030983923766793,36.21225786250961,-20.476040814770457,28.620033463695393
7380.0,-1.1495657759028848,5.346363595915493,3.5975908712964073,-29.663113191388636,23.063498198340348,1.9213404321596532
7400.0,1.1467302473887728,10.906565011273035,-4.82855255859033,23.278643281633936,-17.34876653488236,-29.478741827568474
7420.0,-1.7922964293105896,7.199738957005119,-0.09005936978076015,-15.348511307062862,5.729594445745376,-6.708431169550415
7440.0,2.183739056109057,12.589916606419129,4.274273995465545,-0.2098418849246355,14.16713595395541,28.83398931639588
7460.0,-1.5364926944308712,12.28611294792158,-2.793449088779054,13.547438649329882,-25.29035139532206,7.379229514040514
7480.0,-0.16848912491528723,4.749140175885532,0.935223545169495,-18.1034450734169,19.48413850934976,-26.828250304924303
7500.0,3.194991021658985,13.311859714287593,-1.5673229028091267,33.82545619599118,-5.042485082207921,-12.907288941327508
7520.0,-5.814040988786982,6.748438697828868,-0.15104368695806142,-32.79550284652817,-14.220075823480832,26.471218183935143
7540.0,7.54962224083855,15.862300387653772,4.665565823700484,33.490830520792514,22.82606022696819,16.62700788719633
7560.0,-6.5553633091197625,3.474079007540895,-4.1033733361638705,-31.746253745083486,-22.093867796512058,-22.611760462311032
7580.0,3.6417686123832578,11.051565836498131,-0.11587844457566965,22.81932480449606,10.870032270977234,-17.855696008588964
7600.0,0.23695224060524997,10.645154122998532,2.4144907612214332,-6.566198799663322,9.003324218576143,20.3648981471321
7620.0,-3.390871834343663,11.140450478650244,-1.7322688905206198,-5.726018123347023,-22.25870734506406,25.014847213720145
7640.0,5.041912184642676,10.737544551497228,2.145281292596172,14.503541561870007,25.11012308957338,-19.30269033234087
7660.0,-4.612408213365786,3.8332680737269405,-2.904531562702002,-29.129783680674652,-10.730886435448216,-26.60086402896099
7680.0,3.270543454507528,16.018962897010866,-0.6798009743172904,32.28641683981631,-9.670380351134854,17.61432728873129
7700.0,-2.198790926634392,7.303524471180191,4.873153534945299,-35.54174495246935,23.604979023476115,28.61736365324298
7720.0,1.3664967459957147,13.78875172404995,-4.24260911786227,29.904298496890966,-21.656922743876134,-8.125830151064907
7740.0,-1.9984347316160158,4.068797347818929,-0.1656227349176084,-28.27167749044,11.674213187588133,-29.612309370579815
7760.0,2.6257015606694,12.02618627447864,1.2776145678456963,13.095470043685891,5.294372681605743,4.076494310483679
7780.0,-2.7358185157423174,12.017014466052172,-0.5987334196382383,2.546866527884848,-23.21997438979559,29.021486081310687
7800.0,1.4394311956293846,7.675254858942442,3.28371460390525,-9.554631524621097,19.001484408246927,-0.0633639060739366
7820.0,1.1510461857089227,10.652758263215256,-3.7697918963623134,20.9005020782097,-16.063648565989332,-28.765363196007968
7840.0,-4.499293587073618,4.722538938623837,-0.690557485736238,-31.818636954428214,-2.2205366505731927,-5.193320035045659
7860.0,6.956733807526442,17.471231923452546,5.012473259919073,35.678614618076985,16.918898049421642,26.90492780474636
7880.0,-7.281801452502386,5.7624524207206544,-3.3191526647589606,-32.52648728211632,-22.625395266379577,11.807664091284254
7900.0,5.772326356083952,11.330873037066382,0.723406802553102,28.14246694553556,15.509226821144054,-25.883211039988378
7920.0,-2.129772392549738,6.228918088618226,-0.8304704688566145,-18.918155033995447,-0.9265190709504749,-8.8272022763795
7940.0,-1.0900653397497404,13.007455168785905,-0.863528191893617,3.3466728044440517,-18.260166458409074,25.262657452726714
7960.0,3.5090481988875055,11.912564664116474,4.529697893896527,7.004282139192934,26.851825986242034,16.370128316016963
7980.0,-4.563088706434041,4.899723225114156,-4.0906144883148645,-17.89548361625405,-18.187968801148518,-24.477877042746908
8000.0,3.5163633363791966,12.259140412308515,-0.7179700520300714,26.832336671988013,1.8442677439698612,-17.32699674167401
8020.0,-2.4181654592301878,6.847400840927554,3.916745346020611,-29.915901907995643,18.99428473702509,21.574095097827037
8040.0,1.6804152076394916,16.566723300507345,-1.7760109176808927,36.02564497167364,-27.047280116987675,20.997464960174195
8060.0,-1.5744877619799893,4.011189680922309,1.3278926253977916,-30.16770014471732,23.17572255829891,-17.908695309936196
8080.0,3.0619307877567543,10.974257686569457,-1.9693268675448117,25.093156114757896,0.2669309562942934,-25.861744635698898
8100.0,-3.1752810708592074,9.255432747312517,-1.0807984941625235,-7.403758363459446,-14.612699531902397,18.614290219728506
8120.0,2.692924836689253,12.11988976770472,4.985875319202798,2.334544049435843,23.21148123701278,28.101217041125686
8140.0,-0.49262226916719454,11.073162301211783,-3.8377309465230853,12.161260669580924,-21.580419362804506,-12.512820921208036
8160.0,-2.1587213140856267,4.137478950735363,-1.4219158510983272,-25.87199606034867,6.69297278987544,-26.73574535413635
8180.0,5.585074273294851,14.720422837140745,2.341812406301706,34.362380176898526,10.946586631766031,9.182505994179689
8200.0,-7.5720580148285075,7.29478564518703,-1.303694897558589,-35.46689292960538,-25.423627169211255,32.54703452555055
8220.0,6.907251824469527,14.420482843280745,2.7121542304290256,32.70354651430611,25.15858819723024,-5.51609947230782
8240.0,-4.320933314206761,3.766336741703101,-2.9326017178095283,-28.062426084660384,-8.061824830539592,-28.713910760586284
8260.0,1.0730991812250192,11.930166802727724,-1.5406063900784488,14.375067022834974,-9.8610048327007,-3.9991337613618936
8280.0,2.382638645559987,11.323559288680768,5.267364015351037,-4.43961264629272,22.58519546087916,27.274547969709264
8300.0,-3.84063715878397,9.307440462902036,-2.927107591811394,-8.107987034678942,-23.281506402531896,3.0233638603916573
8320.0,3.7881536542394842,9.868175658999442,-0.615184957274771,18.355614823911566,10.732012203179906,-27.536343308156813
8340.0,-2.67104384247187,4.765477901299074,0.9439538222175065,-28.073993131678304,7.000433632064689,-9.687415349238528
8360.0,1.5390243078914128,16.817755737528163,-1.2359258305684864,29.68106042570655,-21.0233083244091,30.38940565981016
8380.0,-1.990169867499245,5.892754391754736,4.379438780836834,-35.91150551462055,21.94780343171524,13.684094868049305
8400.0,2.7521004360562262,12.10665010668204,-3.169954632895165,32.42686363987081,-13.990335881028741,-28.72091187461124
8420.0,-3.6958268156180627,5.303450919263817,-2.1951215280013696,-21.042683248004586,-6.992462455877363,-17.967897581408277
8440.0,4.263001901775566,13.635312992208743,4.174742459376887,10.173458569425257,21.638508691419883,20.578288763110113
8460.0,-2.4220849607995905,12.025713256735514,-2.2870080431747484,1.319115632797287,-23.506930997165227,18.824199539808674
8480.0,-0.340903188945347,6.3822156968381325,0.2518010537108081,-12.237521306082167,15.114360827896075,-20.773063058493154
8500.0,4.1451897838564165,11.156298629838563,-1.024133293900391,27.890463901666013,3.0097653300927263,-27.17340298720154
8520.0,-6.777371249294592,6.75273802713302,-1.8269637186349323,-30.755840717582807,-19.447474892519743,17.6146184037485
8540.0,7.718806828122956,16.879582422489506,5.071531066433571,32.89596777647788,27.541477828865535,21.754736852503772
8560.0,-5.993249124866831,3.928700087504257,-2.863530386557377,-34.43931706595978,-13.345229042347711,-14.36804488556088
8580.0,3.1263100387005203,11.08198032382783,-2.260366788806075,23.567772128814312,-1.0207448179897296,-25.95739789290828
8600.0,0.11516748481312813,8.295464334167468,3.402916163455372,-13.320216673571117,17.6323077377143,8.856896046528925
8620.0,-2.4371943296736367,12.978120356473438,-1.7053394113179583,2.903629228399219,-25.615994448471287,27.670999783277367
8640.0,3.143191030345449,10.662083686253263,2.551248180505418,8.594231495963827,20.12087977477414,-9.75776973747491
8660.0,-2.6442260686996533,4.802059203005732,-2.0389680710033535,-19.37896814195325,1.8127057376899527,-25.215389057356106
8680.0,2.014239479022391,13.931913088558515,-2.206326512877474,32.29810647753353,-17.118298615530406,-0.44103209854212
8700.0,-1.015679606658157,7.170602569642616,5.14267599125547,-34.37996472154589,24.920996627710217,31.542152226711682
8720.0,2.144323305416999,15.160841720110055,-2.581735224676411,35.240013760158455,-20.758556863467252,6.063904279766307
8740.0,-3.4388910148280485,3.3433805473992426,-1.453908209564886,-33.751565185440256,1.514942862224899,-27.223696468792493
8760.0,4.487827884033842,12.462283736063757,1.918757191689039,21.086376070479062,16.7826513917549,-8.437395650168122
8780.0,-4.537361890036504,10.634534075665217,-1.9537205669913893,-8.84170618805215,-22.49415370534181,25.292599237401657
8800.0,2.362096992181011,10.2999137388015,4.083768174673365,-0.866125068208859,18.77372825123205,13.221594294618093
8820.0,1.188264619921541,9.862745427978526,-2.581293707525778,14.303918054649701,-4.929907932846289,-26.544361839073574
8840.0,-4.582295156907678,4.7983012520502815,-3.266653912732936,-25.691591696089766,-13.353851031649343,-16.526930716846344
8860.0,7.468178892609026,16.225792370873904,5.0501755117841265,27.243878459362403,24.167789563590297,22.776370680337283
8880.0,-6.930640730244007,6.559718224236807,-1.43238939351984,-36.32553266946143,-21.305033914093567,17.56528228582427
8900.0,5.117587621145783,12.85027894851283,-0.5233460621656483,31.461448124610328,3.6091095139478018,-21.66889594213415
8920.0,-1.7698698915812119,4.06814575499645,0.11689723715231437,-24.031195595833864,10.747283630107807,-21.67923479612629
8940.0,-0.9284892229401768,13.378585710778204,-2.185875707382728,14.773142772945578,-25.77614046379927,18.124311343498448
8960.0,1.9786738550113578,11.306829702195776,4.482824595129261,-5.060532976427335,23.39939971037893,26.724632252913832
8980.0,-2.120321802886758,7.208992918961329,-2.5759817059109804,-9.967629581776407,-7.730981258075513,-11.515184480791696
9000.0,1.5536689879193424,10.424474310467087,-3.009493350550783,20.218567832900128,-10.753627239757247,-26.84103139883039
9020.0,-1.0833550705590902,5.938434833987495,3.9519914203743003,-31.03700756424795,21.426101045007872,13.23667698285546
9040.0,1.4814687526744572,16.935203631125034,-1.088831354020102,31.414847879582574,-24.736676105811405,30.35822576329336
9060.0,-2.9903304625908502,4.291776048801013,1.603103687097505,-32.40924012533501,11.351701792654914,-7.8593016555214215
9080.0,4.610929925165311,11.688116115820472,-0.9386587918156855,28.713756104258078,4.558945433872784,-28.39601158194183
9100.0,-5.2017295083922015,6.965316334833199,-2.7129398170328343,-21.753293130155697,-26.025186555615782,0.6599983790021107
9120.0,4.276142179911655,13.533316160465823,5.506072720077117,10.12136676588381,25.11455996238425,32.02519522151225
9140.0,-1.0779111256619902,10.570085344010002,-2.216423646437769,0.24274675364809006,-15.673187077261181,3.599640605788464
9160.0,-2.6549819259194556,5.111163622111142,-2.7183166806779475,-13.886978733874503,-5.613374380592907,-30.868667932282264
9180.0,5.605538502428305,12.532267020789076,2.2395288295704723,27.926874365474628,20.250741276215155,-8.985474421532988
9200.0,-7.104359592748986,7.46550951009447,-1.5541066396703234,-30.847914481414286,-23.67132649570316,28.58442482465974
9220.0,6.760078356463883,15.797989551886772,2.987605561291396,29.035427330957386,15.142191630609158,13.459623057823437
9240.0,-3.8923104259409147,3.000059763633792,-1.8779781530083923,-29.944742527361722,4.905076785830346,-26.361478938922186
9260.0,0.7935982628736515,12.077555360328942,-3.601561085814596,25.209345821449016,-18.67309780359045,-17.27399918757628
9280.0,1.1689797779890296,9.635600342467729,5.235119353661958,-17.314594686154845,29.04533273799673,22.62361486439517
9300.0,-1.8287675819988387,12.015568781718606,-1.3461480199678304,1.0972880764912933,-16.758940875019608,17.180543654762715
9320.0,1.1731578283824198,9.367420790467353,-1.5591619286073422,11.942795184552315,1.607113241307199,-23.28649150986983
9340.0,-0.6453197356649015,4.92720217311074,1.1521702234040387,-22.908407950914448,18.238498961771818,-20.01408743123705
9360.0,0.9691512084769713,15.639543669013516,-2.159985039789521,29.289714630696487,-23.451942823851876,16.482950446576744
9380.0,-2.523062008494658,7.270540780227054,4.455167539104694,-32.68314844107505,19.569748064374238,24.79956630784436
9400.0,3.79610908752276,13.261165781667453,-1.1666090776019606,34.47163964053482,-0.09796376161752862,-19.96155495848148
9420.0,-5.214339501577268,3.7950829989947406,-4.641718738420407,-26.62950184281391,-14.111080827484011,-29.27713339619552
9440.0,5.711863305007835,13.452866437043308,4.1398629025295905,20.181855240048296,24.80390625204277,10.134114133405525
9460.0,-3.6263257061435565,11.272139532300995,-0.9093890361220074,-1.9422556158833268,-20.129511404769882,30.15011522245959
9480.0,0.1727767083637016,8.515944391602192,-0.15573207759813823,-5.663119117633163,5.2785855574229466,-10.043389402268518
9500.0,4.1442942832041485,9.370047377391776,0.18207449298081974,15.148305691632137,9.678030944143993,-32.00102258977358
9520.0,-6.265250199233749,6.404186461657789,-3.046805464690487,-29.401471130206154,-23.38850268031607,6.454150698749317
9540.0,6.9224102897959305,17.206504666863392,4.974947234722476,31.04001709035526,20.20979503179652,28.10498736894284
9560.0,-5.4017424518136945,4.933478705113191,-0.9090630049180505,-35.71411349123174,-5.518987794563611,0.4788337188285865
9580.0,2.8011898661803944,11.716868670472259,-3.6794417947533433,31.612985908754418,-8.386667384952691,-33.79207366732206
9600.0,-0.20196373720966343,5.732023480232469,3.0507494956855483,-22.70607693972564,24.907735480019056,-4.7674599478429105
9620.0,-0.8954862213213837,14.066160539187424,-1.143570409150471,14.476245720696587,-21.4157678420186,27.810002510775227
9640.0,1.236169806324786,10.671290473394533,2.0776337796082953,0.5398708693467307,9.952372591215688,12.227041822256766
9660.0,-0.4039037183094389,5.945243072493947,-0.5561309304349807,-12.850988357552371,8.470502258704578,-27.587297646134175
9680.0,-0.09134955839537784,11.829557004737989,-4.362066624775166,25.139024684352393,-22.453093146970886,-16.598411182952216
9700.0,-1.3277194695876975,7.433982349977491,5.093490828383876,-30.50561672734908,26.182136405221385,24.636112339159475
9720.0,3.384687929062723,16.464380219894206,-0.6971817658425579,31.178486847068058,-10.91188768539026,19.265095867117026
9740.0,-5.341553699121015,3.4504540206698113,-2.6011654160154394,-32.19095626937697,-2.86539333749843,-21.406774942004525
9760.0,6.288802719326094,11.799914694323567,1.7649613163467655,30.744168379274495,21.609699500759973,-21.38766192774228
9780.0,-5.555039917001906,8.704563628013108,-2.1225713325899354,-19.102042309854824,-25.59920643663279,17.432320399557383
9800.0,2.5638089396488843,12.818957084086893,3.402257085198888,3.228803213063893,14.993960004264537,26.046900760629747
9820.0,1.2536707030557501,9.033361881158221,-0.5740078469150716,8.714740471444152,5.003845167426956,-14.426737506914645
9840.0,-4.946105440151604,5.192919113595454,-4.720681255948964,-17.74834433246245,-20.682154889655564,-24.704805918310562
9860.0,6.352094614503168,14.70360561115653,4.629304855953874,29.98420038027899,23.294664188635235,13.346918275373577
9880.0,-6.225666610922553,7.132994531146245,-0.4880055942349698,-33.80559825054994,-16.788132768428405,30.578010887747293
9900.0,4.146387132431734,14.184505458559846,-0.7670675377034472,32.20876426904322,-2.518587037326042,-11.574163872163005
9920.0,-1.4772573069386943,2.8945518732549766,0.6823709498509957,-32.12644504306196,17.69433649293027,-28.052059710340725
9940.0,-0.27189732279689904,13.5458179042501,-3.171949172292574,24.637118698369218,-23.423035908074073,6.27448098476852
9960.0,0.7309819650899452,10.529136615786586,4.251791603381164,-13.07816782297432,16.2294289222882,31.862612257552954
9980.0,0.2534295300204933,9.951511363662023,0.10647510894790072,-0.0969654178928362,-1.6261699317185758,-0.09399427704818632
