timestamp,ax,ay,az,gx,gy,gz
0.0,-0.12108386497519974,9.6981082700582,-0.012276812858590232,-1.8405662824283833,-0.2408587380825577,-0.05162941898745851
20.0,-0.4216552581907756,8.841293291900387,-4.592749300769895,17.389154340919298,-16.587234512282382,-29.36721330639779
40.0,-0.3914612097878331,6.182001130842838,3.4430258196499555,-22.35297198570103,27.647595454931064,-4.9273251726060305
60.0,1.8808640226577258,16.82062164223606,-0.637431363177113,31.815713989008387,-17.46564663640412,30.777640937245586
80.0,-4.213583117578639,5.662882982814123,0.9030243953105885,-34.29655342969353,1.9756240915493373,6.737727188162808
100.0,5.988115341910819,12.11885576310997,0.1271317656042602,32.056997619648385,16.29795879028777,-29.304454598962668
120.0,-6.652995143573517,4.965808225718421,-4.29233489914226,-28.057576787510623,-25.43022285841652,-10.583991459109573
140.0,5.026868249988597,14.509871347977366,4.615978562567034,18.203606814509115,22.08214259350052,29.15962551384863
160.0,-1.3910383852623522,10.251855170082191,0.3561333729478819,-3.552583246118947,-6.1580944860066245,17.121677652537436
180.0,-1.9650433038081965,6.984662592639549,-3.3273990552303694,-8.877629677965391,-14.511415475333669,-28.050273557641592
200.0,5.552145922895207,10.492522100403278,1.9946110411554443,18.70997068042304,21.71384680420607,-17.836819288472782
220.0,-5.956413639505418,7.1096002953854915,-1.8992732785939657,-26.918520689251288,-22.82329828141101,19.52004401688411
240.0,4.883383456136325,16.65344126279481,2.516622249060354,33.76576104096095,7.198055177046619,26.210137512506382
260.0,-3.149783552718556,3.1302032137983486,0.1568868190234149,-36.092137070977095,11.618589618407277,-15.578702484818077
280.0,1.3544821215802583,12.043120733719803,-5.279009883532002,32.70804569509374,-21.80420786045444,-26.035003065450113
300.0,-0.556537795829984,7.700534763815773,4.07063638386292,-20.51680597769615,23.070570859646296,13.572513436921012
320.0,0.43888096047910646,13.741139414790366,0.8095938114439,10.902430605080419,-9.590148937992247,29.55007685627035
340.0,-1.113450151837154,8.828515488315285,-1.9783615914793602,-1.4449875940279346,-6.113098787448962,-9.44579065407287
360.0,1.2466097340558866,5.471299833557144,1.434054940519278,-12.678095793194617,25.273743809764397,-28.90767455881023
380.0,0.4163594124536153,13.713968862276518,-2.713857153651491,22.881008635111893,-25.483144493010276,4.441486395940599
400.0,-2.915712159846298,7.927617980086375,3.542375492049251,-31.975684541666556,13.191333293687832,33.190749640140794
420.0,5.513071987263133,14.72814261576882,0.8358504722029949,33.39169449063138,6.556493046358205,-5.451311664324023
440.0,-7.2572150878630515,2.5795800097070156,-5.020682666808366,-33.400020806841916,-17.658718287408213,-32.76355063688048
460.0,6.081515903399238,13.531510908392395,2.846037356853006,27.40707586784785,24.940926973677612,-3.6339793872055783
480.0,-3.771139585774715,9.859031607338773,-0.001283718940545353,-15.795146924164097,-7.790465189690683,26.240142244520946
500.0,-0.14263323851567566,10.969295980318329,-0.040483605359893926,5.254791701641185,-4.74533359241941,11.86035900639146
520.0,3.8060131481288595,8.378897544193212,0.775290801125406,5.73951375836766,20.782455995907625,-29.792691425442413
540.0,-5.908436100711155,6.121319131898366,-4.24602028359922,-19.979916064356704,-21.388403544538818,-13.357778405930864
560.0,5.423599072137903,16.229408244070097,3.9419954619280637,28.604036032521083,16.115436893881668,24.4596211657376
580.0,-4.094423102344978,6.14272029864776,1.3898351663470534,-36.05095246263896,3.9213668484460733,13.595519987065712
600.0,2.1740000396621664,12.502194520044815,-4.338370196543308,33.15711997174292,-19.446592244522293,-25.43569881317798
620.0,-0.9898212679025395,3.5272153500854713,2.4785406897121405,-27.990361370851485,26.897353611143753,-18.57374919087195
640.0,0.805159738285426,14.789413086241888,-0.9586508731019294,22.596456207721616,-14.902541979462871,24.279396539871843
660.0,-1.1694098339796914,10.434271809668372,1.1648393996413529,-8.592976950662148,-1.6410333096196617,22.705751985576736
680.0,1.7263745739526917,7.821567446316184,0.9831697502680692,-3.3722411318536265,20.178867085903864,-17.41622030950968
700.0,-1.1502144098308653,9.840954900825102,-5.255270286918882,15.691562640965726,-26.03349232633326,-26.143187426711222
720.0,-1.0158655390092677,7.657213691338353,3.895676288863861,-25.58521324608146,20.13621171615942,16.410252366418106
740.0,3.7896132775112745,16.92284812237417,1.7375356541932092,35.028285028629746,-2.1574140715500247,29.616780091622548
760.0,-6.344090484531411,3.876141180488152,-2.8106663405452945,-30.946929593834636,-13.322981369150295,-13.553237710725778
780.0,6.928733978752682,12.194893289053352,1.4559571551744532,29.40014195763236,25.12742080212791,-26.380326736726136
800.0,-6.021635974918321,6.224545195499228,-2.4472837521140547,-27.04987575098156,-19.734759381160313,4.739113531344251
820.0,2.716252033075749,14.548381084296516,2.5954119892827556,18.023899174859036,3.3463834423004553,28.583837017341825
840.0,1.028669195788418,9.187213392627788,1.8884926220484337,-6.831505956998731,12.902324387634568,-3.076220271654517
860.0,-4.2676817181611435,5.926119966185881,-5.364102642641976,-5.327628063539631,-23.775644549840543,-30.631150613586335
880.0,5.362266722250069,12.649475647246978,3.079669074339795,22.54071330716204,24.68158687172173,-4.897685184604951
900.0,-4.531899726014549,8.438029293888908,0.9555394562384478,-29.99486400726302,-6.274305998707659,26.061237420502497
920.0,3.01135744373728,15.36215384271204,-1.2413649353283684,36.85839024434489,-11.109227037746768,3.6485506490845365
940.0,-1.2793041325003776,2.478590164021444,1.329000661927172,-33.25437268001738,24.952921137823918,-28.411008180567453
960.0,1.1205397543967435,12.967517969221474,-3.680890422175844,27.723172100950713,-23.434013639270486,-9.48274200887461
980.0,-1.5349899513980303,9.215636138495602,3.22411567314406,-16.967947196507563,6.612946044682466,28.70104167604256
1000.0,2.2814941471804797,12.22005862937889,2.5527292178748304,9.040580831056918,11.51996096317945,12.6733905468919
1020.0,-2.2562889150108294,7.9103143525289585,-4.942132917891084,1.9740933861450638,-21.371936425148522,-23.763631532747333
1040.0,0.9815486333691704,5.911881271365196,1.98396217040428,-14.225682237477864,23.674147369503867,-16.659626524295202
1060.0,1.8930665009825018,15.299928498819831,-0.040302160345172554,23.476302258261818,-12.075017330350674,22.13008339518577
1080.0,-5.149980415613286,7.024972635246549,0.4633778169860593,-30.832798994347392,-6.928332822621003,19.235587853432918
1100.0,6.909546157711492,13.040179502793109,1.912083895923589,33.27883544621499,26.18174731222309,-19.172083189879586
1120.0,-7.306467842085327,3.4335159855654704,-5.183303848348988,-31.839239861019323,-26.32571562280498,-22.340795204503927
1140.0,5.141976582399116,14.650316054197303,2.917724615720302,29.154748304261215,17.39732325187825,17.084942444916084
1160.0,-1.3569560196257449,9.588193600948479,2.795650593007297,-15.698908885282645,4.126843777983029,21.986389006477882
1180.0,-2.1138125745985024,9.242940488466015,-3.5880405100536517,3.176356227735414,-22.701164043579883,-13.010259001148583
1200.0,4.255516150131398,8.827377188816579,1.3076758787233174,8.067848494471683,21.523684079512797,-28.741966589059455
1220.0,-4.570021797875983,7.384425933727626,-1.4748000029738604,-18.633797772117624,-14.89232335107028,7.479980787892518
1240.0,3.0897428751796574,16.73504276044816,1.6756211874517692,27.61729419181513,-2.77016301568841,30.87715704632675
1260.0,-2.20620129928253,4.583171347304504,2.3603763651681615,-32.41178374641611,17.98028588022916,-8.631560411151103
1280.0,1.3568728959147127,12.361059356326477,-5.15294812725144,36.42513985318905,-23.330508034976717,-29.982285177984
1300.0,-1.757990786805016,5.594185504710786,2.647077453426281,-31.743324517020753,17.66549280640332,-2.4991378874021537
1320.0,2.7154130041725586,15.154487392767248,2.1510011368674236,20.59339649397092,0.4536055864396944,31.416223173925083
1340.0,-3.021986180597182,8.740096942139587,-2.1828486192779217,-12.297065989042904,-17.688256421514573,3.7298498774775775
1360.0,2.625938281229996,6.80978814574985,1.387882745797542,-6.136813336711046,24.716745098233858,-32.369035974841815
1380.0,-0.23798614330218523,11.567125776826227,-3.084141666248264,13.098760980095712,-25.04632700952037,-9.489859533867918
1400.0,-2.56121177179482,8.604873890605795,2.20050840227121,-23.746644927931463,2.724212773227751,29.46203635756907
1420.0,6.298908399689096,15.479675395487508,2.7166567190881397,32.84028277387612,14.736956163769062,13.365748296846988
1440.0,-7.377011693897297,2.5024174224101086,-5.393896238181557,-33.718504250744445,-28.636775066485974,-27.258117440653606
1460.0,6.9025854495372,13.020182200054853,1.70923888048425,30.706504355152962,19.41431115934319,-16.001056955611396
1480.0,-3.6783852050030954,8.588284086558156,1.2281378133564693,-21.987885974177562,-3.6526688670239613,23.325616465286643
1500.0,-0.1317286962625971,13.440474414877892,-0.6622229083329763,12.82105960062997,-11.903596533835245,19.70504833292539
1520.0,2.6429324070285922,7.550789138769384,2.008668187699306,-1.3143180462532502,26.535191902564605,-21.898375429800463
1540.0,-3.8126535112055464,6.195698786185251,-4.689477040580443,-11.130816029366638,-23.295661605637658,-22.46718095019001
1560.0,3.7036017739478755,14.576320105021411,2.351567063872222,22.84473048971961,5.563876838547969,16.584718543079497
1580.0,-2.5211925039767977,7.237094088847635,3.380218252169446,-30.714030002666632,15.302970674407533,26.28624523414006
1600.0,1.4922397133221046,13.473013257996262,-4.153040147014707,35.07117298483385,-20.10837536203712,-13.953188661525552
1620.0,-1.724021997852248,2.9847255027605275,1.4879753126556472,-34.88077692720165,22.543872903237514,-24.96611080384039
1640.0,2.483406460504519,14.668744298488635,-0.5684963980420628,29.95743916879651,-10.636306050274467,9.903320348270016
1660.0,-3.89303007392663,9.295829879735688,0.7765792667932891,-22.102779141910897,-11.044833087847206,28.956254753795868
1680.0,3.7447251777495243,10.252561864916206,2.8847748927565764,9.026459192702402,21.111022739723985,-7.365667297372236
1700.0,-2.152505365645731,8.02193208073197,-5.218418458792126,0.5864489332256202,-25.841170685448695,-28.873818712950033
1720.0,-1.1093962175194596,7.317369979912758,1.5717642332822117,-16.62389209999931,12.14704734390994,0.949789813798647
1740.0,4.4698593963380455,16.30479740817061,3.2070804918319133,24.103712804789506,5.743707719439195,32.40344645883026
1760.0,-6.83881577340914,5.319060396061325,-3.109445350753607,-34.44927797751709,-17.584555578356937,0.0772530192075136
1780.0,7.3736655110319695,12.259739720131174,1.3707290499732576,36.644221313738896,24.48408976109394,-31.308438341989856
1800.0,-5.635243893641815,4.736936345504625,-1.9631229944828301,-31.99343702227003,-13.070143417264667,-6.965776798262819
1820.0,2.7469889222769046,15.303723526063136,0.8682977157132117,24.244690029215718,-5.094807349944787,31.591967670738157
1840.0,0.6340918907221593,8.869672727821673,3.761505694302792,-12.406868096910813,19.04551948699499,11.671979455422317
1860.0,-2.6731759040305816,7.628246661495858,-5.297545400139148,-1.2546337995594763,-26.757507691232945,-28.374948972576924
1880.0,3.3617102434807036,10.200270446916525,0.8996337409610813,12.679035191376602,15.411152730857944,-14.332950145006507
1900.0,-2.973189156184101,8.779682870397654,2.0587454040254456,-20.63405337582313,1.0538555536195215,26.720903475423256
1920.0,1.6547982217158284,15.538369524739144,-1.0109752868736652,33.079508977934516,-23.86852836144028,18.60887875358315
1940.0,-1.8364375724971718,2.7855456900930804,1.7371776583397256,-37.83303240265835,24.34962091505074,-22.29757189561405
1960.0,2.495560546085452,12.582143362311507,-3.87318420819986,34.41244796324278,-21.420536638508693,-18.25684037721023
1980.0,-3.815622263615164,7.2881746016416455,1.1029633277247781,-29.470903606366875,-0.2611314582948103,21.634262888106598
2000.0,4.4624602539875955,14.478327281772849,4.273874728286154,20.638241845625473,17.844839625712336,23.87650516058021
2020.0,-3.6408030440795303,7.471753437947339,-4.660981971618221,-8.815865288715472,-28.168290130118724,-17.211541249227164
2040.0,1.3678597587751367,6.571164448033709,0.46859816710714464,-7.0957991719632725,19.018228058566024,-25.024480983285002
2060.0,2.437608893286125,13.69072491954375,0.6569061043512312,22.050481908990985,1.7301107212435884,8.451342575160306
2080.0,-5.872104398985441,8.22984436571605,0.032620998230041776,-25.83397588810152,-17.181476649966317,28.808670077209502
2100.0,7.3929479855769324,14.055248965776691,2.97735659849264,36.96064165166895,24.141395461123825,-8.864457078009426
2120.0,-6.448016726530312,2.3524779121223287,-4.692277452401737,-36.89650459807176,-18.176309760211943,-29.820175921295476
2140.0,4.763027106727638,14.577452849420967,0.7909739773028179,33.441580070975995,3.618159963299367,0.4338317977456332
2160.0,-1.7245079249712556,9.003956803890112,3.923117943816612,-24.88101224187552,11.765322396025171,30.147902132555544
2180.0,-1.1598457910097486,11.613969352292838,-3.2620272664513124,15.087857924484387,-20.759950977925655,-3.606472192444466
2200.0,2.7757313952291427,7.542567066016406,0.8028911026717069,0.3921518809608,20.946609919333678,-29.30029326310227
2220.0,-2.267214659640939,7.5183564848482245,-1.2614428897315202,-14.010303522372011,-6.85755320869322,-2.6437299921918536
2240.0,1.992375596721806,15.823953452196598,0.18243960705004186,24.089599828524936,-14.5020789999336,30.513615711812353
2260.0,-1.41323670736599,6.041811407970875,3.7725761602295798,-31.257013128553986,22.657376767917974,10.15537566371553
2280.0,1.6398236532958195,12.302646180436325,-4.985349849681726,32.431299918705136,-22.878844211151964,-26.187422086565505
2300.0,-3.1540953957135653,3.6242421157101896,0.6496298637045477,-31.747635619101388,4.09102551110669,-16.201583956303296
2320.0,4.556391383946869,16.085206946167514,2.937731465430195,29.173602368927657,7.373478387570065,23.865668463967605
2340.0,-5.303497330045809,8.595409743451139,-1.8332687246767607,-19.104613695000758,-21.083076273677886,12.313547747574265
2360.0,3.668152871213671,8.85461214555,1.8303851194160532,4.2816734629462605,23.24145620595185,-22.88776945794181
2380.0,-0.17530116781041438,9.420737431074617,-3.164513184319645,7.748435402490259,-12.174191056633902,-18.31109081336206
2400.0,-3.357184955497352,8.528787903017882,0.47442240271939573,-19.25953731340147,-7.196244137435278,21.680980762585477
2420.0,6.120662903962174,15.97835775765485,4.459372998569437,30.045764743963584,23.56269635075466,22.531866052512765
2440.0,-7.31093896522286,3.8443621950042,-4.3602686364014565,-37.93080072069046,-21.515299449252822,-14.986358697310534
2460.0,5.881404061531872,12.612634261774595,0.019202091483593448,30.60598286700109,13.348751225839525,-29.299615633078137
2480.0,-3.5546127798006357,6.323352993133351,1.5613993037413927,-28.390912080642618,4.146752450962377,11.680219283111157
2500.0,0.733554908481435,15.603233609054692,-0.8396369243553226,20.628658187534366,-19.19246694111036,28.025640303811645
2520.0,1.4690873474853776,7.366982210696233,3.0233366745007175,-11.299362876826667,27.063537008178816,-7.545698280985125
2540.0,-1.9208371709044585,7.04196205171072,-3.9975342017987816,-1.70338183251943,-14.846179362473881,-29.33953114608156
2560.0,1.4984527802223575,11.869186215121912,-0.0014201143906790864,14.726557167831718,-4.3529474582729435,3.0924381709740167
2580.0,-1.0032823931997648,8.70982098443831,4.501747672880606,-24.409608105221572,18.617877600990983,32.69168706851443
2600.0,0.9220032566100385,14.285577737449646,-3.475952296941683,34.50221429688129,-27.13325981661051,-0.8398766552344443
2620.0,-2.1161341043067328,2.586671246150241,0.41765098084516883,-32.3387608577021,20.422084148102098,-24.56480280079235
2640.0,4.104705890380868,14.322074979589845,-0.3031178349808914,31.850072731623673,1.7146573719378833,-4.308986734101504
2660.0,-5.374085847362679,8.353257604808505,-0.8479376345556826,-23.53917715296022,-18.887226685415072,27.78372843869734
2680.0,5.028452529556935,12.60957825896799,4.126503343031437,16.75512396848895,28.799350068485133,9.193507888924708
2700.0,-2.785463297798686,6.708292192540625,-4.5191742361157985,-4.110571940055803,-15.191107388925415,-28.101551883550805
2720.0,-0.43986405111036586,7.2892860103399695,-0.2792685082191528,-7.597003905421478,3.579743463466608,-11.081882137358471
2740.0,4.573010164129236,14.991035065479778,4.1021407447406375,20.087072176880895,16.446833072563646,27.598493942920115
2760.0,-6.6939711733523,6.701018210634343,-2.6643897426060437,-30.8920647985805,-26.4570043215137,15.53076425049422
2780.0,6.742281347625539,12.845594242596928,1.1494446150128588,36.81952965980061,19.82513348066585,-24.102072752404677
2800.0,-4.874079139019304,3.6046449677282464,-1.834604195714794,-36.54463499399848,-6.009754798305739,-19.516153688957086
2820.0,2.1550897666404154,15.896095453434091,-0.254461668425581,29.74464069797088,-13.403249770314757,23.54838846843294
2840.0,0.27499064802302975,8.722147831797182,4.899910950402627,-21.291449596243666,25.897066956958625,23.075528271003307
2860.0,-1.3643287279212308,9.946443090870204,-4.347146559516886,9.466145162941942,-21.29359587605113,-19.25507300117239
2880.0,1.0407496097692515,8.257204747666757,-1.0192038276017104,-0.18907234527636163,7.328486001109218,-25.123025889909705
2900.0,-0.5658915364084856,9.200631642946234,2.4132681196962764,-16.48128886420548,11.075514999365705,15.86254300873171
2920.0,0.5183231733469809,15.364243331189018,-1.1886707855064562,25.67923667903133,-24.58693032064947,33.70709445241158
2940.0,-1.6919584611159437,4.3693715321870625,2.4179855854709404,-34.85848324659852,21.871420465516138,-10.763554599938498
2960.0,3.298811081635693,12.621127814707084,-3.0397675452327793,33.57278118561942,-8.522783080852774,-29.377764799285643
2980.0,-5.443421580656719,5.986239476442079,-1.2750293267363397,-32.65053220800984,-13.200839610425255,7.605497304868383
3000.0,6.10920045729962,15.807653671797155,5.218000157193743,29.329581047176497,23.031587122164648,31.456798665466412
3020.0,-4.718365158674912,7.479937000714192,-3.2319541906348643,-14.508982503378652,-21.100405492730015,-2.5048556517709013
3040.0,1.6344163914658552,7.542184591647153,-0.13882542003836112,1.943083724317191,11.182704845249189,-28.768127086450573
3060.0,2.13760152502901,10.947123598646206,0.8159602651601681,9.636415480957774,7.603673554642789,-2.4649490174777164
3080.0,-4.755609347667384,9.354275478450752,-0.852559887183961,-20.455081836065496,-24.907592391093775,27.01515709888177
3100.0,6.659682420888287,14.558597469528348,3.873513632342037,31.811368264382143,24.17680618724795,9.6750922288076
3120.0,-5.705843075482894,2.3034417271758674,-3.6907135628470855,-35.239772589204755,-15.932933759469098,-28.239241292933364
3140.0,3.767568469070882,13.937200284925353,-1.3829129144315013,35.32463141519832,-2.792419416286833,-14.041687318985442
3160.0,-1.4512871218129408,7.7906541148483495,5.2485676286960885,-27.675265056026838,23.521299836546007,27.986501573690497
3180.0,-0.3158540621795326,13.985970054505012,-2.1968115999530515,22.298345195692388,-23.750893775037948,8.734899834634998
3200.0,0.4069854557171039,6.046354290414996,0.24580534877651694,-8.31646264590567,14.651695180145774,-23.747666232449284
3220.0,-0.07593742844686882,7.934840298101575,-1.0021127339830107,-8.380602927248681,2.966092412235631,-22.316897168479326
3240.0,-0.32258086830142096,13.676979839098449,-1.0901243215836374,18.930507757464824,-21.52491755006944,23.045726120904263
3260.0,-0.21114940458768633,7.84505247306843,5.011469514265101,-24.2863739854345,25.608207693816585,20.94229533286347
3280.0,2.1409556871855115,12.383078082641676,-3.7995494964468257,33.88012315870218,-16.40051787681756,-21.624768752333765
3300.0,-4.634322752859876,2.9791250425724343,-1.783412848878281,-34.29492908135648,-2.9486609470331144,-21.264223676796924
3320.0,6.216416906882522,15.144373583446622,3.3774888431797128,33.76115423507437,20.3611892260483,14.777665434186346
3340.0,-6.456306936857322,8.33788839593747,-1.9190475245367002,-24.895769780663755,-25.32279921054259,28.26128900806098
3360.0,4.071494323847921,10.871430267189329,1.4889734688286806,13.341177238910449,17.819454608338205,-13.115014140490928
3380.0,-0.29202051882855673,7.149247352426366,-1.8879674186757078,-3.271721812655282,-0.45447690224506987,-30.18077574069571
3400.0,-3.4631131936191797,8.835084722611136,-1.523888105292021,-11.44102500302927,-16.055512620136387,8.043502842186863
3420.0,5.581328404213315,15.330225623846177,5.49078830164454,23.436778838343628,25.418911466700113,32.335016389692115
3440.0,-6.414853817914111,5.242164449296046,-2.6560867426638426,-30.242154277853494,-16.01500908778,-3.047039671376952
3460.0,4.9294070119588085,12.334801446735938,-1.4390533128376541,31.596391063078183,3.8206090041974443,-29.839692338766547
3480.0,-3.3124167397898847,4.665767017861724,2.1172036244233325,-31.958915597542376,13.255782195295074,-2.501710090243598
3500.0,0.8894950250290026,16.322250685929227,-1.4403589911043522,29.44740039332691,-24.030773071950463,28.03694693878986
3520.0,-0.0727513335831037,7.180565160217435,3.7725296738985588,-19.067193326391017,23.672611412813065,5.784437259090954
3540.0,0.13740871466634416,8.953855401289758,-2.9664606362513632,10.70138262516919,-5.419763717943725,-29.629530381377354
3560.0,-0.9614556377493272,9.743130762576723,-2.4516119509148884,2.0062402510819277,-8.692186046942274,-9.526688272218632
3580.0,0.5392637820578504,9.802954864495016,4.959061359465556,-20.937298614378335,22.890497662474527,28.920632836588762
3600.0,0.5749177478136336,14.826837388675216,-2.0208247731026145,26.511492871215328,-22.932333487745915,12.358659149337557
3620.0,-3.218079993326093,2.706061487222457,-0.6779445805133874,-34.93533667537421,7.971229354752197,-24.034010891693235
3640.0,5.31324859872872,12.990270611762163,0.4539475020504887,37.34600521260695,10.120716763937121,-17.679723038529104
3660.0,-6.953492572455433,6.980408325674165,-1.6494616986812618,-36.483513541854464,-18.12656182446941,23.408098547778632
3680.0,6.2164182506972026,15.300794785085671,4.428485855404643,30.203074064386705,26.88327082039686,19.68585702537799
3700.0,-3.173765900171756,6.083581474919648,-2.8749299989886925,-13.94884644104012,-9.069207485676756,-23.54321400054488
3720.0,-0.6731738676085046,7.715336453800655,-2.6866467145766832,-0.8005214826001307,-6.275090532330815,-23.864050960784446
3740.0,4.286598998140516,12.81378610989812,4.13473555603236,11.749278544990284,23.17629504466611,13.997977972646456
3760.0,-6.021859656729389,8.825134273910871,-1.5933796251076997,-28.13379137271519,-25.359355680589875,24.0808812227366
3780.0,5.103047564115615,12.901442916053556,1.1434941589678245,33.362695102238355,12.709877635127611,-13.56368987724158
3800.0,-3.9397608308140804,2.7459308651236047,-1.326594625428025,-34.928202103249966,4.905051701368106,-24.48697753826968
3820.0,1.8666126091376876,15.428297412812528,-2.513364511720477,35.02251893474613,-22.119788211974182,9.048493753083047
3840.0,-0.7962706159533917,8.50110627597366,5.084350708388752,-27.26218741827623,26.400997502881975,30.792203679407578
3860.0,0.6408751231276846,12.204412792718758,-2.1412742827965743,17.91512624328877,-17.87701414264939,-5.855993885118778
3880.0,-1.2156015458025327,6.406304580753597,-2.3220998002487714,-4.179242232429102,-5.151404452333981,-31.729691040138036
3900.0,1.7811964938334808,9.172060838113971,2.74353846325443,-5.466978460280368,20.396979059351924,-0.6015929833197798
3920.0,-0.7684829284202929,15.07275756903101,-1.6087728881565944,17.539848717124944,-22.149321233645793,27.24231531496388
3940.0,-1.2673826213799075,6.25561526296848,2.2296775418094943,-27.01600887137712,15.923638540046847,2.363723620854816
3960.0,4.71902569538005,12.21856448061833,-1.4608939416395343,33.269873954561135,-0.4537228922250778,-28.681699878196078
3980.0,-6.42513835319115,3.971592055058186,-3.1500413271136307,-34.04135724594323,-18.274381882927475,-5.564081299035187
4000.0,6.896364579929958,16.634353922295702,5.521682637388124,31.46046157416501,26.051892922597556,27.874680439616334
4020.0,-4.881099659388801,7.348286901793507,-1.5247822973585745,-24.744415671181883,-19.640304758793274,15.326406053630976
4040.0,1.59937507540366,9.017406433470368,-1.4833099144099418,11.405284888809511,2.427575299268121,-24.069039025489335
4060.0,1.8107319175576861,8.85207744038572,1.2691710496747468,-1.705600753320303,12.709420130910404,-11.931912688982816
4080.0,-4.9438403195011285,10.035162408582563,-1.6402833658364646,-12.009026770828093,-21.954417925944476,25.22776685484349
4100.0,5.941908878045723,14.96957684351008,3.9802445561967135,24.40932830966254,17.236708695840218,14.69711998159379
4120.0,-4.574212818977541,3.4325826607407497,-2.347939180528133,-36.33586638060808,-4.285821122778814,-21.204140448909534
4140.0,2.665043981296002,12.805664212287965,-3.467767076862959,32.877758015635116,-17.133360120668662,-20.653786920405704
4160.0,-1.438512314503679,6.337854261908978,4.671186812069353,-35.085596577515986,26.176061582259514,14.0990302417176
4180.0,0.9574495859459996,16.41138899420603,-1.258332730700087,30.65977758989796,-17.827924105902476,25.828789585355366
4200.0,-1.5385157313540208,5.838656735435215,-0.22185596580812475,-13.9473641446537,6.490435831074606,-15.455004262816527
4220.0,2.432808721411281,8.298553245370547,-0.5020048836183273,9.232407512416202,11.34967709715036,-27.09402514589743
4240.0,-1.7051427883186443,11.961220048804202,-2.6851030006307406,9.066667922648023,-23.338641912569322,10.685236966735047
4260.0,0.42586336344979436,9.294256398567994,5.082710433221355,-16.660115633705697,24.232257141663545,28.88528737440105
4280.0,2.694402307454902,13.248425261917083,-2.2509063629518415,28.013937687385717,-5.831348371695631,-7.36932540606454
4300.0,-5.4643590492716765,2.6573624801109066,-3.362771937055398,-32.53061089594177,-7.0715081635758015,-28.933389425598445
4320.0,7.307750104020779,15.388076301909104,3.1433736085223782,31.908723629679443,24.87799037588209,-2.905474397104067
4340.0,-6.916637559363068,7.766313922509266,-1.2299967523399187,-30.90555976909987,-24.047050318297618,30.45762420910598
4360.0,4.119476668294967,12.821263017252008,1.595776176199146,22.76192780370892,9.901704238143278,2.5558971666671306
4380.0,-0.2712370282046669,5.706740628452404,-0.8424699459639048,-9.757149243240503,7.5448134376252,-31.31021417363277
4400.0,-2.7786648687017226,9.14131555636547,-3.3336192549015093,-3.9764875558311084,-25.090744300780543,-6.2516522457496215
4420.0,4.5409327677792275,14.192711389410844,5.346329164850533,12.478223644376548,23.866121912087895,31.39233530452058
4440.0,-4.885071381671046,7.031444132833451,-0.8993901239264319,-23.848306618158677,-11.59469121801312,13.134398027618932
4460.0,3.3287582068220605,12.099042505794452,-2.4986041764359443,32.055617261466026,-5.066217182272606,-24.999409368317707
4480.0,-2.100825142031586,3.7944158491964903,2.124239148888,-33.11600978848666,22.75377597995627,-16.0252021070188
4500.0,1.0709783580243464,16.4339514249687,-1.1416252218796183,33.56653779148299,-28.90101873570465,26.629675690884277
4520.0,-1.48475575198494,7.068148933647701,3.179331499450656,-29.532142759254484,14.677666264431297,15.861001238977869
4540.0,2.6445896467160406,10.515772817721786,-1.1558191014927734,18.581696781566485,4.830627696957054,-22.23667226642112
4560.0,-3.0258609003613626,7.4202070399929445,-4.33925015341848,-7.4786682868016605,-18.712145664879735,-21.826049960060335
4580.0,1.7461915256976994,10.387349858785202,4.6057386348131395,-9.015181275348699,27.195268155833606,19.77426641740129
4600.0,0.08263633232119127,14.674806982577103,-0.4913556550866456,22.13962431989865,-15.313919435429302,24.15159897072084
4620.0,-4.163177428465866,4.306540308253529,-0.9315808442521831,-24.12510459950469,-2.6336255168410965,-17.061307559485293
4640.0,6.5325065418229515,12.385222772159137,0.715896632941186,35.54958463567128,17.56243969258393,-26.150293793420825
4660.0,-7.687295585786481,5.808112692137976,-2.617880529938479,-30.39114467666888,-28.69033550332313,11.715642812078674
4680.0,6.20535950420624,16.718742001424385,4.474046572374073,29.559874927373354,13.938837169858857,28.007389712767992
4700.0,-3.2422923768738934,6.016110358643755,-0.7064977640069571,-23.117837356772515,-0.11902338056950823,-6.356028724353327
4720.0,-0.9037471986958293,8.883170880832157,-4.468287374178239,8.899135546338234,-17.69006240996798,-26.095402040288942
4740.0,3.3792309481412106,10.722436089547987,3.6950889281944406,2.6946973709580746,26.92110312967224,7.703676864577335
4760.0,-4.734466074279824,10.341117974881337,-0.513953610897316,-16.421153557813742,-21.389390117419083,30.0936797817284
4780.0,3.7921169967086277,13.596086107258891,0.2674822014786392,28.708701911560816,4.00938362825533,0.8744740038852338
4800.0,-2.341205737466041,2.7578449326875645,0.0922533145360899,-34.00009936920171,16.25627902727645,-27.068816128576856
4820.0,1.4156747893044435,14.420101782849564,-3.7925239437305174,40.193706338952985,-23.09359432357455,-6.543054909233469
4840.0,-1.6648511018846852,7.45607965530281,4.95515710872547,-31.443043452411068,21.968495408965058,27.801525895464906
4860.0,2.6464336250490583,14.454560162340245,-0.37124660390334446,28.409722242797443,-4.6286377254635465,6.52763977427522
4880.0,-3.2344986999338294,5.593717073683961,-3.393203475145617,-11.462229124511605,-13.171945361789039,-29.540029886653322
4900.0,3.3179518808206807,9.269544366729935,2.658530470614681,1.4590484127980519,19.557459176197742,-10.811134215596894
4920.0,-1.4881025458018975,13.329412324014877,-1.422570242033612,10.53914282072794,-20.38378702546299,24.13748032094514
4940.0,-1.9417316745337923,8.719302913934422,2.044398580719112,-20.34234571341573,8.062066933678059,17.177911903298273
4960.0,4.850819878332055,12.213023918715622,-0.41585666041842756,28.59511166908098,12.08608467408422,-21.053934153643628
4980.0,-6.980027121014662,3.2318730293569216,-4.69868146103776,-37.05260793947343,-24.83888488166319,-21.68411481994609
5000.0,6.968100734709182,16.509147949601335,4.589588920727779,35.91467324051242,21.900914219374755,23.076818569938954
5020.0,-5.309951791613284,7.576836265747241,-0.06462191651027172,-30.436734218642407,-8.51187300506136,21.9621356477951
5040.0,1.71646486121694,11.429294985090571,-2.4956791956924715,22.44257052401326,-8.62378450791854,-15.708911187593424
5060.0,1.5450165978615102,6.249298893634545,1.298029803383657,-12.480739050388637,21.155898183320446,-23.999471426694154
5080.0,-3.27225530973436,10.322641788145404,-2.607575385607653,-1.7370738803442383,-24.450295222682954,10.322954835215128
5100.0,3.4560748713152862,14.279254829458269,3.3260491178638136,14.39990849595414,15.642777702993246,28.35117634783735
5120.0,-2.555985965121718,5.62168273288365,0.44484614558889096,-26.53274963847384,3.241342323144186,-9.41159840371795
5140.0,1.5312745133865466,11.845385001552003,-5.391895612741105,30.57708222052964,-22.51166377709833,-31.744833560414122
5160.0,-1.454394337372929,5.195334748433161,3.5158687290592767,-36.6148971570229,22.614208000639117,5.606859931123389
5180.0,2.2746422163342546,16.529162261465085,-0.16354438997131554,35.83683503125862,-15.61837643952199,29.76763039154
5200.0,-3.5658962308946833,6.295929848167709,-0.3845116331582151,-23.91787306827266,-4.153807079348651,-0.7846429155919759
5220.0,4.4920039909232505,9.290213209691705,0.9447121152894881,15.21877090230038,19.82312726418277,-31.014156630219023
5240.0,-3.343382597955719,9.144846685534564,-3.5163489859618453,-1.510910501719498,-21.299085228019674,-3.4328501600561334
5260.0,0.900367463669338,10.370707648227633,4.206981459030116,-8.078734522201751,17.07708355413435,25.355973674731196
5280.0,2.861952457579203,13.623644660472003,0.6622019404493872,23.470842353048724,2.633288405762359,8.126733556633203
5300.0,-5.925151660334931,3.334545258774203,-4.442798043672019,-29.688367889607136,-19.406155268605453,-29.814847630898402
5320.0,8.177530424142846,13.490968867164602,2.7558080152883506,29.532776515449786,20.420468220959236,-13.625292047642928
5340.0,-6.529592235052434,7.119580715028015,-0.6493586657741259,-33.96473651210277,-18.341959439835524,27.30999504067883
5360.0,3.73942195956658,15.062910155864857,1.2714671167275324,26.300544316711374,-0.871579634689094,17.151336205005496
5380.0,-1.170140068331202,4.836244551694182,0.9314972422735867,-17.707008933435727,13.786882794592811,-24.558632130617397
5400.0,-1.4771353766212463,9.473664394497128,-4.661643958835273,11.447277250280548,-24.787167439371615,-18.440825134049167
5420.0,3.157700437795545,12.594287338832453,4.190511265427737,1.197014945471369,22.690876323696195,18.69163107322978
5440.0,-2.7608689950476495,9.27667082114512,0.929040841651326,-17.286154059255356,-1.320168353132988,20.41360077032975
5460.0,1.7541101409912458,12.011361413808217,-3.4175254455662243,27.20481411350289,-10.721071575097712,-19.25521452745106
5480.0,-1.2209762863751672,2.8848085537538846,1.7835866292235911,-34.84424492233011,25.300890949059497,-24.33316082636516
5500.0,2.2609111086226443,15.866837818597588,-2.113131311496416,35.11677820085619,-22.72448900977392,15.244468429731082
5520.0,-3.467909620085244,7.594376365671166,2.7796305321396844,-30.691798050076667,2.458208420600215,27.093475070419395
5540.0,4.688784920014188,12.481631528171633,1.1031327190296585,28.097624323346782,9.889332579219143,-11.207418406887351
5560.0,-5.120408916397249,5.344408592197454,-4.962827880380534,-12.780141368356096,-20.00654962819187,-30.70967968982256
5580.0,2.5934823026583658,10.7424476481156,3.8125825775227744,-0.5507333205338361,20.026197922390452,7.686784735046386
5600.0,0.6617258267049592,13.974223989242434,1.2401639235837896,9.729019471109687,-11.242221916823727,30.150553318290534
5620.0,-4.129395823169418,6.736553328379698,-1.5766758522151332,-24.313431317437068,-9.194362104079877,-2.7418943947833294
5640.0,6.771568377010585,12.001353770285782,1.2077560066765616,31.38888726398968,25.527373718734765,-29.050682832558966
5660.0,-7.167445166729497,4.544847430494777,-3.1125496566414634,-35.73459300106332,-24.050266386525713,-3.164766083141296
5680.0,5.67466871685481,17.04494320294116,3.3193007729419604,38.69794298829965,9.055432553578708,28.259667957733217
5700.0,-2.9002357217320287,6.179156394273475,1.7347662648109612,-31.73313846030466,5.461971327665199,5.165020866384367
5720.0,-0.1327398780645834,10.232332861065501,-5.169345404248744,15.015150304800098,-23.60548357904549,-30.392144841488726
5740.0,2.113824893769765,8.264079158766306,2.69925852586049,-6.422682782682404,21.916984609893927,-14.703190284147393
5760.0,-2.2726386689603224,11.315297862772617,0.34882613858609,-6.299396024455213,-12.171395159961719,26.737338708677907
5780.0,1.4469913026830423,13.273001451774835,0.4694021626675591,17.407325656046464,-9.103409596466342,15.753089340249755
5800.0,-1.2787509603272516,3.5393366642339834,1.0676733784720533,-26.179427419336086,22.918339053848563,-24.305111040368704
5820.0,1.6270869244722765,13.207861485805603,-4.668133581565692,35.28534288160774,-26.234590267938696,-18.35959139571458
5840.0,-2.444157168928067,6.574443358368151,3.7994039093864687,-36.925453461535,15.698317572748833,23.310350544918652
5860.0,4.6067642206988095,16.232611914564558,1.7505696315573736,29.769953361586836,5.7307189037402715,22.052829164652316
5880.0,-5.118180661776842,4.7842345322277025,-3.769704485798585,-23.218998535625722,-19.6916204453009,-20.7865838510208
5900.0,4.9566899250936265,9.421162829736343,1.8335157816741516,12.068442663494311,27.26648177753298,-23.172056604104846
5920.0,-1.943631996885163,11.452609279339843,-0.9781587288778208,-0.510103366199052,-16.402106269687344,12.918671114823702
5940.0,-1.8896286049888527,10.38118076958537,1.7102448453394519,-11.941229660186199,-1.75695101263686,26.816570020480153
5960.0,5.689055512767736,12.07244270216744,1.6426293985382214,25.045583860779388,16.844301865493918,-9.999615214375869
5980.0,-6.883424239802379,3.4140469403124007,-5.570297533644474,-32.39885937377723,-23.8031940844606,-27.36780193954153
6000.0,6.544891463945441,15.266636522276693,2.985459798250882,33.01016625740546,16.941278031760135,6.010654079033803
6020.0,-4.2313997441785505,7.218364067422217,1.6132176457009386,-33.10930113575564,4.238103666966776,30.315579691593207
6040.0,1.5985293538287322,13.558477451967665,-2.6976631888987344,26.84291920456459,-15.539902745437983,-3.181947029582574
6060.0,0.33888580411694535,4.610583622385142,1.4401466105930574,-15.476330224291198,24.808613003921607,-29.65521249529828
6080.0,-1.4159095019355488,10.51251971309098,-2.654270248281025,1.079727810348432,-22.53567035162986,-2.292985201306541
6100.0,1.5267070622698646,13.491779255771602,2.5630817824015675,6.669660042191902,3.74097234449281,29.404304546232794
6120.0,-0.7805928811512458,7.409303855139414,2.3074963150326724,-14.330337367689722,16.19317620709659,4.633221969173026
6140.0,0.387280696348342,11.490825019741969,-5.65353701041774,27.273129938342308,-19.527602499650055,-31.45498538792918
6160.0,-1.6813475772576907,3.9931569229097676,2.296713653866746,-32.59022016966015,23.577498446081655,-7.389208694328252
6180.0,3.6847511980038985,17.028718457438202,1.3122431883528196,37.85513203538027,-4.573224612377841,26.214375920766404
6200.0,-5.215607941373021,6.846189446487186,-0.7380722021258351,-25.53137094511436,-13.386569133219181,15.234449092843548
6220.0,6.15308645039605,11.001818287363095,2.0891026053491126,24.58413001745056,22.446700898017745,-28.333060960514054
6240.0,-4.341428877213097,6.755683209286185,-4.254389736303989,-13.428593248339347,-22.24664494426246,-15.901111825299166
6260.0,1.094728724179088,11.507071822028209,2.721697394636969,-1.0387524865584106,7.113755963476721,24.1777583266173
6280.0,3.216887879004871,13.886400245744168,3.0591267349364712,13.457026468147067,9.615855638461438,23.142707090435504
6300.0,-5.894413294126726,5.009870800172092,-4.556019600259179,-21.549501066853225,-23.568134240311707,-17.494790186499806
6320.0,7.066113343910777,12.490614982412088,1.6623050493650968,30.31292738334405,19.432264339238827,-22.657318740065055
6340.0,-5.972562619925864,6.437110775724468,-0.0535573522729792,-32.52148392202547,-7.697416923142372,12.631773752230506
6360.0,3.157254136913705,16.55908474162323,0.3111870641509912,36.757555245797654,-8.386945688515127,29.027055925928394
6380.0,-0.7864370842548108,4.757656211682247,1.925400499938533,-27.073680956837137,22.103352049125597,-16.07087759651783
6400.0,-0.5722816688399897,10.294718060945593,-5.192587132066108,17.77321323640836,-24.736955273228357,-25.56455537842495
6420.0,0.9324014286945133,9.713705229593085,2.459547175748865,-8.65569730476515,17.024064391245666,10.400571274497503
6440.0,0.03635095330639515,10.942383805925852,2.7950577671535286,-8.247827249309601,5.092906904024374,27.328072530510482
6460.0,0.21279903590906812,11.648675308928167,-3.3379350559729453,20.54688919774749,-23.698240770704807,-7.55722135687401
6480.0,-0.8683193580146238,3.5313322650053616,1.4369460217753556,-30.140293549432496,24.155375667532404,-28.44998696993868
6500.0,2.7656057896204134,14.785988232701419,-2.041122763993391,37.06961078749189,-11.665489609487343,1.1464331799643313
6520.0,-5.070772548429513,7.186056253968689,1.3757430585187538,-31.807156408744532,-3.4847026985876237,32.546827374888395
6540.0,5.893516859369744,14.603511870634819,3.229395575983887,32.63060063486018,20.723301556675512,6.208910742745955
6560.0,-5.641427596043167,4.328587394425428,-5.602409582921318,-24.623502451315595,-26.11965425886544,-28.20513255816738
6580.0,3.6390882154025266,10.534926928730803,1.4570048295470963,13.257830686927665,15.745055721964722,-5.008731313012051
6600.0,0.4473443690065436,12.18608206135264,2.0046040188612673,1.1090751355114132,4.210385879172686,26.2731499720142
6620.0,-3.9773352165022535,8.841122941058943,-1.6853450810310178,-14.206311976995366,-19.464340030153647,11.790701230295873
6640.0,6.017266037096711,11.006772681931787,1.4868982205615529,26.693854378280562,23.508709984759708,-24.345323672694832
6660.0,-6.317442578963011,4.15951350701057,-3.271032623614531,-31.840586416655874,-18.43548493608133,-12.97051055504322
6680.0,4.689243187093891,16.85864766077937,2.1150032921267323,33.27596287233664,4.672670324771429,23.652668542074558
6700.0,-2.116934967219811,6.7944575427915455,3.6692359496622458,-37.65785763042877,18.38417288109369,22.33892086774175
6720.0,0.26060305054518773,11.523865351729182,-4.73291662963321,29.372843423798294,-29.09421146711071,-23.236165846009094
6740.0,0.37617271724607226,5.4773162288328106,1.1753081962935503,-13.499501542017407,20.766719676955965,-25.440831762173854
6760.0,0.3307109498296684,11.571969126429435,0.7387166763244702,4.108032529529409,-5.123125241793662,21.912226200386975
6780.0,-0.6627617480010466,13.00495986663841,-0.6728110157996063,10.190695346418927,-15.837655359593201,26.369929357870863
6800.0,0.20132061020082156,5.7285563380405184,2.6867037464802928,-20.149745702165262,21.383848230228146,-16.14484963858819
6820.0,1.2367062840776166,11.879881326470107,-4.836304559131316,32.10979930256039,-23.306637544928655,-28.22988613694942
6840.0,-3.6743492929494352,6.177337104726438,1.5330940493243344,-36.19584992615165,3.0958497825633153,11.39836190985582
6860.0,5.6025352000299815,17.215876842937067,3.7596779622845955,33.97225828723125,13.990753337698687,26.922923344982816
6880.0,-6.820545137622885,5.0032533818263705,-3.7810420648669987,-31.123328145358293,-20.864506180448682,-6.84856660200447
6900.0,5.559484453086489,10.380019972788102,1.2363376159069972,21.47929766014795,24.923660347772604,-28.968654946966407
6920.0,-1.9462477530981577,9.018589514448186,-0.8885883438265075,-12.179990391680132,-5.095449085399064,1.1448335562259113
6940.0,-1.2350268722529898,11.901916456359693,0.39974988990251026,-2.402503938919482,-12.143005021065807,33.57919880034542
6960.0,4.880154539292981,12.22315912141578,3.313003254615001,13.983417252500987,25.5171541531596,4.35960933901696
6980.0,-6.08031365096236,3.913964678370212,-5.3765426424960205,-25.43931969072926,-23.185649097342132,-30.425445296826148
7000.0,5.666823841984983,13.559965067701881,0.6804834152234773,32.61502280882945,11.29267831163338,-6.5220463892901
7020.0,-3.5490684370401726,7.131586667830672,3.0797536095766453,-35.350326096988084,8.578216744886179,29.238869502498275
7040.0,1.4672445796591551,15.524909755669976,-2.609410566847571,30.323735448330694,-18.83680041979998,11.822106698948161
7060.0,-0.3523660171585839,4.006318585761033,1.832557181978705,-28.416695380096336,24.466269610738664,-26.254638735493835
7080.0,0.5073847426512816,10.798593314173036,-2.7382137953832886,17.743547999547665,-10.975548200777986,-12.682800881928214
7100.0,-1.410346834118156,11.522725194219513,0.9660341149166514,-3.8351943581485752,-5.1788498173927096,24.591585440809535
7120.0,1.2214837811791932,9.714200365587521,4.011156236709292,-7.905955915688207,25.221077582656303,18.436660296545487
7140.0,0.016320079109336583,10.691701236702691,-4.963514928344995,23.22895947129838,-25.065867954525853,-22.84509299389053
7160.0,-2.297756572087273,3.8303574783278633,-0.0031394376684619196,-30.23415232736132,15.962506687413526,-21.786393827068373
7180.0,4.6411461705383115,16.077226951330854,1.9661224326169793,31.683733781090883,3.5416134072968943,18.776037271998746
7200.0,-6.905143127784014,7.092969912831912,-1.5039820838224152,-32.30846606858625,-22.188727421917015,23.69198551483938
7220.0,6.859027998763219,12.521833551999805,2.3375356310603856,29.68691231838018,23.299725951643254,-12.795437828647655
7240.0,-4.493927195547955,4.731978342744644,-4.077043840069671,-18.180453938283907,-14.441816721226536,-25.20500855620459
7260.0,1.0042136912344806,12.133788268282279,0.4495043823921321,10.937425224641727,-3.285358116951992,14.700613265569046
7280.0,2.9465303027089,12.861160222205571,4.580238622347721,2.626551448627292,17.092617384972737,28.597296565695103
7300.0,-4.967063074965269,6.622726409553893,-3.781414338675809,-16.288254383829464,-23.946270624669218,-11.782699827617995
7320.0,5.707932343148341,11.357035787354011,0.36070522143334915,27.666796531059074,14.245786431803722,-31.585705115972278
7340.0,-4.574536322761681,5.394449890765941,0.049759741526151896,-33.180495465689575,-0.5064523067665723,5.369682474092994
7360.0,2.5254887136675364,17.2236171615557,-0.2983606150487101,34.376450449196895,-16.9393635487185,30.424101468963425
7380.0,-0.9378494429420643,4.96846477363524,3.284946767498156,-34.87420423355926,29.29526284125714,0.1343866607365712
7400.0,1.1257722017642449,10.689690032174832,-4.143976772243215,23.414195511533453,-20.607556304344293,-29.420439036733598
7420.0,-1.2983431189606711,7.381189042207184,0.11737746016233094,-13.433497363944031,0.28418364621331005,-6.956589598446586
7440.0,1.8300724170387823,12.182815991919476,3.8869767672178557,4.795868864460698,17.495626630339125,29.991978762807243
7460.0,-1.6671103623444927,11.917496060813297,-2.7514826755335053,10.940962380899762,-27.31847496916347,6.887840078853728
7480.0,-0.33818211046860364,4.512607850737657,1.2135369757362053,-23.474941954371534,17.655203379890306,-28.0890248948117
7500.0,3.2599334506783237,13.46989628756956,-1.6152201062617961,33.326593677260064,1.0132704451623233,-8.880995922998032
7520.0,-6.194128188388666,7.082140011350672,-0.215518821536571,-33.27377386968404,-16.532577107286343,28.523114633791128
7540.0,7.453421290426398,16.20236785209737,4.375643602623731,33.01352749676858,23.36870175796612,16.767128071744754
7560.0,-6.569024609605319,3.294626813131347,-4.651104510159087,-31.425484540649673,-25.115477053014395,-20.776251761020085
7580.0,3.410393847582864,10.890410634597693,-0.5764694885122981,21.69135002974869,6.400799577354728,-21.43510646769679
7600.0,0.3598287862880557,10.461066026284128,3.0216394453708233,-10.39551918570939,12.060307109942789,23.857385061007417
7620.0,-3.6379220090913167,10.96514548892193,-1.7024072638034518,-5.7305748141823365,-23.34845215418943,23.438347868394192
7640.0,5.022360205115368,10.754035602455415,1.612857148032176,18.733628602751004,19.62783657060082,-16.373885901853082
7660.0,-4.687041428252428,3.921985749456403,-3.1178852143035867,-27.86901242148784,-9.581103110649456,-27.46699011953212
7680.0,3.2040218845142863,15.780530626442086,-0.5288683383268032,28.779373991977526,-7.346069926798323,15.348386353265806
7700.0,-1.7798980459414102,7.47383086612776,5.178973527865649,-34.38274812149576,18.605323072506017,30.707334657024877
7720.0,1.1471712577152096,13.592072966394426,-3.795798175685956,35.07068748734643,-25.889308172037733,-9.76477505362643
7740.0,-1.958832987162585,4.058139271302169,-0.22889975314955135,-26.510627656386287,14.542131110444288,-31.251155837894384
7760.0,2.340330513322675,12.172799035851117,1.3416680074038472,15.132202876273205,5.0073161816289335,3.2521602531726614
7780.0,-3.0306359557987674,12.474356411643758,-0.861817914029649,-0.6161692778761982,-23.413939706405383,29.574789662592945
7800.0,1.821068114709377,8.039667229716551,3.6201778286406086,-12.961349852249926,22.114206888927413,-1.7369767906346931
7820.0,1.6037787666355372,10.690216774087066,-4.195410576402332,22.835022625185253,-15.234563639647806,-31.851456329799483
7840.0,-4.469969785773541,5.149643121699415,-0.7738391507960265,-33.47093178592425,-4.983230529131413,-3.8494223819004914
7860.0,6.726402724664502,17.170647272757847,4.930027794740219,35.35017483224777,18.995034779092784,33.60359645080906
7880.0,-7.2234497511524,5.774724369443177,-3.2507109795374176,-32.91278003293059,-23.838616158257764,6.266051524737577
7900.0,5.226134606601731,11.245937227636158,0.22425919807009637,26.40329660862225,15.322400716598363,-30.460493672631372
7920.0,-2.3490114093077636,6.419697299304964,-0.5824633142876123,-19.74470036574799,5.670406216353695,-11.704684680814301
7940.0,-1.5820757159914176,13.33274751566456,-0.8326867277526863,5.390810004749646,-18.637309019644757,27.60172850888346
7960.0,3.8892245383108324,11.905254264953328,4.677779020806428,7.964773198796764,24.629415743930156,15.928454392659425
7980.0,-4.594627817253952,5.233771747363,-3.9472470542431446,-16.963745066433834,-15.267791626683447,-27.082012955718067
8000.0,3.41645690272644,12.31101787980838,-1.1932482628325811,30.291444718928112,1.4896617174346933,-19.683060833720035
8020.0,-2.46254408406509,6.850441736903766,3.893258513520142,-30.026573979518755,16.413600635828033,19.576089543547212
8040.0,1.393943361028137,16.34571231397038,-2.1840695869922517,36.474630773498845,-25.823552548717277,24.31775073016092
8060.0,-1.5080987241122936,3.732443314651101,1.9489920823294358,-29.847455895032628,15.429112417461516,-18.748646177557028
8080.0,2.813350483994125,11.13594832701841,-1.9477601664553987,23.731042338702554,-1.754916097273584,-28.756554975030856
8100.0,-3.4200193254471256,8.936812898071722,-1.1631185224985237,-12.038142146070813,-11.965777192301587,14.409890142758018
8120.0,3.0381036778851986,12.292710732029704,5.183763549926804,0.5506765973077938,26.25100215448037,25.642545677986625
8140.0,-0.4230965936346537,10.883059159419558,-3.8502770144397878,15.25597187122476,-19.69981965961298,-12.77796449187538
8160.0,-2.251921082238268,3.7401151647712925,-0.9402977594821375,-25.089010958080728,6.042885426350328,-30.97632216060141
8180.0,5.707817716746561,14.45996012695041,2.2947126564140414,30.378847513673083,15.925457132232475,5.939405916756457
8200.0,-7.3222723066003175,7.177820150136563,-1.6477566551950376,-31.856481913299017,-22.574266007896064,26.769189881337006
8220.0,7.178383897646635,14.302328165892503,3.1930042385604076,35.58979775870564,21.33634168910611,-3.6762207939320124
8240.0,-4.543557863066614,3.434307341603467,-3.1001852255363693,-26.760749955901996,-7.633220859241246,-33.52098295188134
8260.0,1.1840094320616725,12.279393522155585,-1.7492423238377097,18.87765158025155,-10.091620314104574,0.1636314194005415
8280.0,1.8916213123643402,11.558556766095938,5.1928606796151255,-8.401595875420417,26.687201358610686,26.532020589349187
8300.0,-3.669902336284036,9.269405240498418,-2.81267019250428,-7.591310026718055,-19.032509922474517,6.870458154264547
8320.0,3.513915792857563,10.352285982822076,-0.46312623635270905,22.532811885433077,11.058367238309764,-30.026316859698255
8340.0,-2.984671243576076,4.759631877211802,0.6984195201897415,-29.94904072942163,7.693860488181865,-12.703441965851903
8360.0,1.4613403002181995,16.58083691041331,-1.1132535443451115,31.545730338637483,-22.33164833756534,25.711178167282615
8380.0,-1.7272397541153348,5.974189841187523,4.229290335362344,-34.94202779177605,22.353101599890024,10.01787749216043
8400.0,2.5344423188237584,11.665215775088543,-3.356878405977921,34.41322681635569,-9.956523639075925,-27.974342285357032
8420.0,-3.964138178018957,4.684256260073709,-2.346095271834824,-23.940465891565992,-6.141143386712358,-19.570053784083864
8440.0,4.054187378680304,13.320857236538803,4.741319032146334,8.826032243490356,17.7748390403197,20.130839628912767
8460.0,-2.6121259053592465,11.556971549430738,-2.1936598215072096,2.631158821835217,-23.001450943212355,24.138064276888624
8480.0,-0.0904065078532825,5.769490761444068,0.7882118916423108,-18.12932904035191,12.794635147405664,-20.580746483604948
8500.0,3.5139246657891006,11.436284368972903,-0.7197859934830371,25.396601744005604,2.3211982103566493,-23.605244062475613
8520.0,-6.571841371851815,6.4218016168485486,-1.8849420813941162,-30.776410427357785,-21.489219957030176,16.16648075643913
8540.0,7.680580709033269,17.12495040517753,5.246230205799787,33.86971804796585,25.16907486880176,23.750689645754008
8560.0,-6.3450635746958355,3.8167964160805656,-2.8714156019375,-36.95859667083808,-14.736082605699428,-14.161771872354892
8580.0,3.1058640710136616,11.305897325840299,-2.54539582349223,26.841435828546437,-2.292467897070431,-28.139171675766445
8600.0,0.3293353647199876,8.087573098949486,3.1924778341600955,-15.621970471836661,17.44428174080155,11.116733910941283
8620.0,-2.4278442904181596,12.849719043586196,-1.2327989570273317,7.302902425672638,-28.61850281209894,28.950005641457047
8640.0,2.9915377425583403,10.729505495244645,2.3955517548531313,7.601767039069917,14.919856240611223,-6.353167936298845
8660.0,-2.317559269705148,4.660243461115692,-1.9821178656502147,-19.54808747500407,-2.2250814285538643,-26.029305601383555
8680.0,2.1242506547073132,13.85405593114848,-2.580149260395312,27.630528888813892,-14.433405598368495,-1.6414909573590326
8700.0,-1.4470261666435207,7.708050935907363,5.721872942588944,-32.047275744857885,24.390639385437943,31.46265105682682
8720.0,1.989213603150064,15.196131088044867,-2.396505197426398,35.31417779813987,-18.940461937959203,5.40788570820975
8740.0,-3.3496190389721483,3.2583317391346274,-1.6337341878383553,-30.423010278227448,3.0053203300886495,-29.97409803695071
8760.0,4.5978709496260395,12.072176744661315,1.5968208278651046,20.600979195517304,18.776151908633594,-4.833614030301108
8780.0,-4.2051368877079405,10.651871883926255,-1.5567708822381168,-10.364308720696846,-22.137623528194297,29.169933509239396
8800.0,2.191506707163051,10.057535871517436,3.99305506545784,-0.0008858395235940009,22.36836405719441,16.28017668958075
8820.0,1.5944963562734342,9.903579841466748,-2.6227567190471266,12.984284205171537,-4.73729753176633,-30.036759279855577
8840.0,-4.735401331981146,4.795985712057114,-3.1076796777699256,-25.075421737840937,-13.54541982552066,-16.026264340623005
8860.0,6.875975218447516,16.677708244710608,5.178620264838868,32.88828775012169,27.483294109344484,21.465592446930568
8880.0,-6.912440434163604,6.500672258126635,-1.7107785449291342,-34.84509777911767,-25.65837907125492,19.025602643173833
8900.0,5.128423668939433,12.578579052164386,-0.18357175487202174,30.24163041176547,3.99976420091473,-20.20576582500911
8920.0,-1.8600720472981775,4.280572143399633,-0.07903829544484493,-23.964206135360058,12.849496722314132,-23.986020791075017
8940.0,-0.8998748668842274,13.20280146027491,-2.178879679785815,13.607998453244786,-24.38850005401856,17.531408874901178
8960.0,2.1037888287145003,11.361447448620996,4.664161256548691,-0.38570371524798563,22.608443844464627,22.96220280608425
8980.0,-2.090030558499878,7.016135768369945,-2.2449657403887504,-6.451121244987817,-10.768196129439652,-14.502492257053355
9000.0,1.6860640303759118,10.03301508175913,-2.944803999235237,25.950694863234624,-11.023879171314347,-28.765497708853037
9020.0,-0.9323572762826711,6.308623130886954,3.8334595001819554,-29.202854496927856,22.874424104500036,8.348323817345134
9040.0,1.8547144485255531,17.157260966889467,-1.5956465059631768,33.04861797576318,-23.90614393924313,29.62984084557126
9060.0,-2.790739216521594,4.18418183166822,1.6091461264453875,-35.508228203309635,8.38172905925256,-8.028883700241204
9080.0,4.9402884892223735,11.444409161828931,-1.0093292381450774,29.033535019111206,9.02410093070163,-32.84520066391118
9100.0,-5.22695301732071,7.156936817068639,-3.0263965490412343,-23.07267433388028,-23.261505275562257,1.046205897943461
9120.0,4.061166888573811,13.737064878705636,5.388367901175035,7.243357470201071,21.9196596426984,32.32675024054649
9140.0,-1.1453326169591358,10.491281442013893,-1.9803262679456446,2.4396294339817963,-14.74806277431185,5.548293727913965
9160.0,-2.50377741855711,5.131112154066991,-2.757165177246612,-16.733150780586556,-3.5447023600270327,-31.978537091237733
9180.0,5.690301700157614,12.974197645535291,2.254162041150924,27.06850414732376,23.06850676592938,-6.0708136130141135
9200.0,-7.133612655691386,7.740846022719558,-1.6843166773193032,-33.75554337506543,-26.22592173451988,31.013878178090497
9220.0,6.626812150808519,15.5346639253772,2.7187667515881353,30.189595067156116,12.61311092357856,12.293221538591588
9240.0,-4.139085839143983,2.972709373244,-1.3490818804574067,-32.606332489357925,0.784162886237556,-28.124293194175294
9260.0,1.3462760596985113,11.987581490010037,-3.840005656070139,25.505277194257793,-20.80954695212638,-17.3993462086616
9280.0,1.0954332396672126,9.997040885815684,5.164095920095229,-14.206117176415841,24.685932254912974,21.404614960786198
9300.0,-1.5954501442178914,11.586140530391319,-0.9114251630991492,1.533531596460797,-18.30162578051866,14.90699489721378
9320.0,1.5391235585252128,9.22009466131357,-1.419242897738821,11.401591736682171,0.2395367093713526,-17.050264106581643
9340.0,-0.9279030346687763,4.590934182966912,0.7145624430637934,-23.946102804430904,16.577111553118648,-23.064190165878916
9360.0,1.0606084052990905,15.531157119566052,-2.2206214791100747,29.460610759820273,-30.17784313219599,18.75048541588255
9380.0,-2.2430498326605073,7.259203380762082,4.220558614499164,-36.30177390764806,19.360138386610814,21.473132675250042
9400.0,4.1008598207714355,13.299191117309048,-1.1293205051450692,35.69209899095342,-2.6377648994439995,-15.296112140532722
9420.0,-5.272525717455876,3.177371975026037,-3.915622342348397,-28.45398342381532,-16.94729123560622,-28.49977614019968
9440.0,5.561374783397291,13.401739123566383,4.126052256031244,19.16482001553909,23.08255573523637,10.745782157935837
9460.0,-3.4479702814714557,10.726560090085293,-0.9845728347484809,-5.571978230647272,-19.961629965080064,26.87430785109028
9480.0,-0.10804178536077248,8.320034363690318,0.06877853882563573,-2.0163317464520083,4.904029034640052,-5.443272566807815
9500.0,3.8372498623752476,9.686877781777953,-0.5302657758147183,21.91300533733069,13.949729059707794,-31.225822734207632
9520.0,-6.311921365820499,5.959656254552356,-3.5146429594075297,-27.075242392706805,-25.114940109188435,1.6802950065557476
9540.0,6.764246901988368,17.3114397863584,5.120764997665387,31.362329989005566,20.78894639052357,32.83586245012528
9560.0,-5.475788988942805,5.054127251332949,-0.8314799345701795,-38.109595486870035,-5.955638189181682,4.180441983797282
9580.0,2.504892732142691,11.691692086487679,-3.387251652901528,31.84111591806536,-12.265086073282177,-29.067176014138735
9600.0,-0.05716448159182652,5.839112371520879,2.9439993958092643,-24.362709563846103,22.927056100963735,-8.443624717451815
9620.0,-1.013854346576894,14.274029334653738,-1.3662198970112867,12.077959044540252,-22.13079506945291,28.408242052513618
9640.0,0.8219769039628625,10.404878068726177,2.1237780924559417,1.8763715294551029,10.166339024042312,7.306163176666216
9660.0,-0.5405034247921372,5.633337185476753,-0.5384290787630337,-8.665404285462861,7.190615277521763,-24.4896399876606
9680.0,0.3715182816982549,11.74833190159689,-3.8810103352012377,20.447962618671983,-18.55817757060028,-11.167651845201117
9700.0,-0.6335691807529797,7.661755123397281,5.254547553437396,-31.200393834731663,21.37255862835377,27.909202158640873
9720.0,2.8078818033313198,16.317180692228355,-0.6941342974834619,32.52244891650838,-9.336408715782904,16.182250034163
9740.0,-4.919913587512364,3.255846746188184,-2.4391889879569715,-34.40292085196596,-9.022586140528201,-20.34744267947326
9760.0,5.805951765438629,12.107063480917516,1.8028844814955562,29.79267113370477,20.14904909559536,-22.61692104519416
9780.0,-5.691960327319219,8.589862904508372,-1.9667354750031627,-22.16709314608483,-22.305598331770916,22.615633209116616
9800.0,2.6848304379401484,12.677291343714636,3.5440897674305574,6.35883426097791,13.308356828242683,24.73738548659605
9820.0,1.429624883680138,9.081860878201516,-0.5721762373739702,3.954130873213424,3.789882615103492,-16.481134054969655
9840.0,-4.933898876356839,5.3361875444534865,-4.715973624288616,-15.078682469958702,-22.956941612915024,-24.803276885808906
9860.0,6.341484231035323,14.840805487574233,4.163759848026343,30.32385605929814,26.58681372520642,15.803854294002196
9880.0,-6.188488819320836,6.93246936541987,-0.3723151780674403,-33.34838333185755,-17.077139575466614,26.396326100587544
9900.0,4.155485276041588,14.024741480196694,-1.0812162755121733,35.24015435087079,0.3154362350519131,-8.128352664148313
9920.0,-1.4012251579330437,2.9841289239408173,0.9333520323066453,-31.189639329532046,15.497072789339256,-27.044113984946748
9940.0,0.31236271715130187,13.60420659065014,-3.184291204927707,24.02202088796377,-27.360512378894896,2.056367710980973
9960.0,0.587220156103631,10.5197234474039,4.363844669281451,-11.264274790983631,14.261894503077198,33.487355540876266
9980.0,0.009439644779980374,9.813905382720788,-0.11915044637624438,-1.2820808846285863,-2.2974644705680554,2.4152231445567702
