timestamp,ax,ay,az,gx,gy,gz
0.0,0.1634682225084219,9.905952327294623,-0.08424325502780561,0.1326277867439798,-1.0063049824177233,-0.5093424719166056
20.0,-0.8357835828624571,9.157751881928473,-4.497580921027493,12.766432750051651,-20.718759446205382,-28.523301541424026
40.0,0.1112210942010769,5.790627388380879,3.00104747791529,-24.107995554576497,21.83870191365633,-7.358003453495491
60.0,1.727458814451042,16.615507751734622,-0.6193628119744664,29.581570394592152,-17.636402357033806,29.877499403185244
80.0,-4.691679398269764,5.406447313306583,0.830455268418053,-35.265775980412386,5.026325298397201,7.026284549838325
100.0,6.2374539418663595,12.238302096524428,0.3933590049439561,34.00589424112937,14.824335469352459,-28.419033476857162
120.0,-6.328835453431454,4.515629482575472,-4.412102660005278,-24.93866783532198,-26.446290895830032,-11.740612800355501
140.0,4.693716943849299,14.564171913033858,4.651730898605183,20.889407049459724,25.129405398681975,28.096654813314437
160.0,-1.2253463358987822,10.416378189158348,0.8526051140826139,-4.551064572150716,-0.6545500448924857,18.432335180597256
180.0,-2.9740787593783513,6.93741401868758,-3.850900518912506,-7.452686717443284,-13.910407743444198,-25.44617005212875
200.0,5.615804389328164,10.664965905018052,2.3405162892897087,18.057557150694112,25.34436990756887,-21.944491502530646
220.0,-6.034277780561772,7.150908956595241,-1.4876322430996203,-29.556138332463853,-22.403791086269134,23.464575005963045
240.0,5.263014942152281,16.474110029841825,1.953834247783652,30.26411434015919,6.188517175189428,21.916627448933927
260.0,-3.5057212678452965,3.508606491285261,-0.035479214553781,-34.67141296054118,10.19513964252943,-21.492671688798662
280.0,1.4052341529053145,12.06907007989002,-5.0455013454679785,33.95689242786222,-28.300488462476338,-23.186777285936433
300.0,-0.2887214836919891,7.841382639050731,4.0715726198309845,-23.749599995331362,21.192977040808724,13.588161090512129
320.0,0.3928375640165874,14.10197716336065,0.5258085529499419,11.951628999352934,-9.477564509088978,27.942049762812022
340.0,-1.1309932861828111,8.954249884143474,-1.9929842937354885,4.316608840327495,-8.376361306731342,-9.885819063375129
360.0,0.7922264840602987,5.4825978441058085,1.4082464797985685,-12.466585998482351,23.993970475364545,-29.120365446475237
380.0,0.05334074669771266,13.97812173357385,-3.032896458206197,26.236986428341794,-20.86473446238305,3.3266186773887405
400.0,-2.8691219928785303,7.599518856033579,3.4244460322928854,-33.81269485552253,13.817354117668794,30.40037754762129
420.0,5.476673218097316,14.749777406171967,1.1509404220951012,37.384253001214766,8.472746064181106,-1.2375874274424947
440.0,-6.712253237684712,2.264190475138104,-4.788320310119846,-32.0458112138463,-17.72247123984939,-27.19409945819277
460.0,6.262389903874503,13.280741923093236,3.034682649633496,27.823483580038975,22.36292557439186,-4.331272345677664
480.0,-3.702416293990522,9.666923251144297,-0.19880220575037416,-16.277460992561583,-14.89640486038866,32.35807127806217
500.0,0.5201746393131209,11.240840221041495,-0.17507358921464866,1.9606717072079416,-3.929723515285101,3.479053035520344
520.0,3.4905671669164624,8.959542426135759,0.8827227871139581,11.66671604998091,20.85958256169031,-23.906266836970943
540.0,-5.556079220169681,5.927828394819335,-4.124708069914811,-22.281275853599602,-19.01019735760761,-10.536634913778622
560.0,5.675661593708124,16.227611207575105,3.6487883719916936,27.507353058556276,14.717453497214787,26.66912309538455
580.0,-4.120560394961164,6.3909777287190614,1.3158338393454858,-36.34688601559139,3.7369955553169465,14.723636510301887
600.0,2.1873351317606198,12.685565805906878,-4.137723766858195,35.41038289906309,-18.473948227727686,-26.35894733779351
620.0,-1.0945988400339188,4.029840705419315,2.219573673457487,-29.8948955528931,23.099771406393536,-20.93187812178663
640.0,1.106575405439679,14.756575629286148,-0.5321412989288028,23.9419977575188,-15.19786283965108,22.515175988572555
660.0,-1.2170373547895195,9.712500528396484,0.9619595247933526,-10.706308276333571,-2.3120050860724337,22.867845376809534
680.0,1.741244208468694,8.007706420155472,1.210786039383604,-3.1369690738308247,17.520901568700097,-16.719659502453904
700.0,-0.9480837727063155,10.01197583160339,-5.3633120881073655,14.230077809668877,-26.912195178817388,-26.6475721008393
720.0,-0.41864411315009686,7.4345925976340475,3.8896107954074957,-24.41631238526647,17.95672698074171,14.741822939376222
740.0,3.7765887379234,16.884554687191407,1.5931026376767636,31.005790195837484,-1.253568194710377,27.445402214729516
760.0,-6.4923829110518945,4.039038020247944,-2.697153843388944,-33.65461014374332,-16.025891072892822,-11.314359365913727
780.0,7.115853484393611,11.951000526825,1.3527707269856057,31.939012094015528,27.79667505395005,-26.28938482822949
800.0,-5.788549679008335,7.023999594350609,-2.3334930890948815,-23.40542407749563,-21.12728406026163,6.515843371822645
820.0,2.6300631304528275,14.64417177138835,2.391362110173889,15.54256208837431,3.1613840536433746,28.806280411339674
840.0,1.1804665595546482,9.208451952078208,1.4952364561699245,-1.4982046745459865,16.267334732245814,1.0121926212199188
860.0,-3.9981094690118324,6.138889575667962,-5.438168278593892,-10.709452554169504,-24.247704411739015,-33.43505593490245
880.0,4.974173464058768,12.351472425356992,3.2254335541302583,21.44882882211201,21.54505432614385,2.285546057558296
900.0,-4.513822994288145,8.32325082230241,1.2411204098652564,-29.15904044095553,-6.849810857483773,29.625428047467278
920.0,3.073489370018511,15.240003085091677,-1.4089444607242512,35.63248497660181,-16.934720351218793,5.351193500411613
940.0,-1.3573349247763988,2.5914476163669087,1.3858424206735913,-36.494718758096326,24.50150064466805,-27.928706037184977
960.0,1.037317144420415,13.657484708405935,-3.9370404685154776,30.412412985872304,-20.75207880888851,-11.284565045294029
980.0,-1.6899376667466997,8.93179800592504,2.876606098737431,-19.661698535642916,9.60570037336286,29.843741178916474
1000.0,2.4509988775413336,12.345048437591004,2.249922320317716,11.751692699096697,9.64331726424956,17.898896084883205
1020.0,-2.406421846330931,8.262786073666595,-4.856973626400668,0.7948448500185035,-22.514566452650335,-26.99710470041019
1040.0,0.7503276176608406,5.831818901614284,2.5915987404871323,-15.83503257697802,25.310677257212053,-14.856886029569083
1060.0,1.8958657848044136,15.345062794520821,-0.24358889436542974,27.375194360358776,-12.489852047400763,24.670890149563412
1080.0,-4.636367163760734,6.637890466843899,0.21695905567849225,-33.96076173552235,-4.664341535991552,20.499557487975974
1100.0,7.2973679534290286,13.283715181031544,1.773392553049261,32.24821432667848,23.02446393376766,-16.780121043346742
1120.0,-7.4862332599383326,3.2387469822944865,-4.7516035406823836,-31.928170545339356,-23.04739293820149,-23.84761023572369
1140.0,5.019088036669233,14.827138100419628,2.967194601316216,27.018293184261175,14.631451772140753,18.569393151530225
1160.0,-1.3589699758545242,9.918071039751911,2.8181766547139304,-16.786516922293917,4.278839791934317,27.731455388895725
1180.0,-2.5822047242475543,9.34820488765655,-4.150357309691902,2.80989200231796,-23.248809711537763,-15.651451282637439
1200.0,4.229256639546322,9.111232777631416,1.7392685720955887,9.228264815673196,24.572073254989043,-26.887040492763223
1220.0,-4.69698568428909,7.380605316479967,-1.8192808051472082,-22.67462634861441,-11.304245480609879,7.926236554065037
1240.0,3.9159241848815154,16.43728457135071,1.7242742699264777,27.08249825032392,-4.484905335015182,29.78107492922926
1260.0,-2.324625942722309,4.481843305326203,2.6476427589808593,-33.87271483394321,17.918885061969995,-3.5984854054967537
1280.0,1.4950605195539397,12.097950917889888,-5.473303523127923,34.16010557221944,-27.08584703030624,-31.40391112330773
1300.0,-1.6490118133250704,5.606946204374739,2.1975497883701887,-29.39867490519426,16.326993431986125,0.49908915021841127
1320.0,2.296618686272055,15.401959097590401,1.7520211209098064,15.183630418975785,1.6929093993389581,32.059077424968855
1340.0,-3.254857342667387,9.181161968150521,-2.100206766964662,-7.66591204097992,-18.076541818591824,2.9439666922534613
1360.0,2.2968593789303564,6.516409523537563,1.7611026533845293,-1.3583591958976768,23.180407705591026,-29.238394312546916
1380.0,-0.18525467719208816,11.884745350947899,-3.3203760166599237,16.596930727509363,-19.077481455451245,-8.082630501515734
1400.0,-3.2364359662189988,8.438694147033711,1.8577145622959512,-22.96497815010131,2.586296570330689,27.759624131618
1420.0,5.8934953029153405,15.454942262796457,3.2582144337678645,34.18180371899085,17.01161172206272,15.305350914205059
1440.0,-7.578174343242734,2.4503795188282496,-5.423624575357686,-32.55898324966171,-26.961377207056124,-23.590313077617836
1460.0,6.734903644412917,12.908695623319622,1.5545017035769906,32.571160865564174,21.837500642086997,-14.929924426155607
1480.0,-3.9776267950565223,8.127533030205734,0.863513731625772,-22.835718311625996,-5.809152163708431,19.954313710951663
1500.0,0.13786148815783247,13.373362410447813,-0.5794584175974167,15.068434297501089,-14.320768649379577,17.56319289208936
1520.0,2.7533292733501646,7.618194620987277,2.048078595234356,-2.9383974731654803,23.891287671397976,-22.160530501787168
1540.0,-3.7263987231667435,6.322721591696307,-3.8832103204338924,-11.774451627486137,-20.269577893418578,-25.507313282186093
1560.0,3.8516107125898444,14.316805635794918,1.9489233361354852,21.071469362237078,11.094084470623407,16.25611152323017
1580.0,-2.575875138323294,7.553279522372834,3.0085655643541283,-31.850857545108077,10.624703759352945,27.39430097496805
1600.0,1.2327560792537988,13.554371910283097,-4.466499729003477,36.95159547543867,-23.418054362252658,-14.866317989943662
1620.0,-1.7560672852783468,2.3860025987543607,1.230180159437429,-34.62841276171864,22.699875768528884,-22.926789847454394
1640.0,2.473795271937946,14.660185893852239,-0.5177971861111349,31.56661143855137,-8.165604507562335,8.776077251762235
1660.0,-3.6700960561267975,9.523146643393133,0.6966506267348965,-19.085859396051532,-8.688525764638257,25.914856315984824
1680.0,3.6122119364194845,10.441510301642056,2.6398138568207994,7.245726057278977,21.698663845412277,-5.903448649107279
1700.0,-2.1181315691624665,7.823304089482323,-5.300653662682637,3.071818443792523,-21.879550112195115,-32.75852672581649
1720.0,-0.8405811859402506,7.104230930401188,1.9332480683979472,-17.241691686451027,12.723272271734212,0.1037569262558784
1740.0,4.196766973689241,16.33273524608974,2.7656245622535063,28.12144339566111,6.9404837458605755,33.98208429204702
1760.0,-7.1126832159441955,5.520120661461162,-2.933404128951025,-35.74895944526801,-23.370697187144252,2.539557947614627
1780.0,7.542565568033714,12.541651153007942,1.351949571452295,35.53105912908828,25.976875997763504,-30.078859048908555
1800.0,-5.402536612768335,5.230040071549275,-2.149334305888822,-33.382336683834794,-12.027179446287828,-5.807411556373146
1820.0,2.5897082698020313,15.754583083758344,1.0512994894922885,22.851198709745496,-5.011390857365319,30.416762325398928
1840.0,0.8731225047226323,8.925245280743022,3.4346391269957635,-14.558983328031857,21.606994460500573,10.283853957044244
1860.0,-3.1848747495372187,7.23413965151641,-5.216446351049069,1.5371298542761433,-23.3005669735849,-30.478402790596867
1880.0,3.3413585087232924,10.141725323023618,0.7856541352191013,14.794039712826532,11.931748237200434,-15.773478958521371
1900.0,-2.930349296722206,8.468246579274258,2.3298755474413464,-24.715032287871043,0.8957007764413862,29.113118478953968
1920.0,1.4832840042107416,16.023443995640417,-1.500051316330986,32.71811122521461,-19.188451688035656,21.22301347756678
1940.0,-1.6511693457044747,2.9835164630505413,1.7097820681822407,-34.328577542503716,24.63552565393592,-21.54608426779791
1960.0,2.455840558736543,12.743928116152139,-4.089267490144315,35.11608579971632,-19.402432926348812,-18.513863007403327
1980.0,-3.948750588199424,7.5787988910507496,1.0043497753974568,-25.353956433680434,-2.9233281575443097,19.177333203461476
2000.0,4.7857496952484455,14.552007541119107,4.144183387251356,18.83119822734002,14.067714960712763,23.01586406319359
2020.0,-3.910613728662408,7.312514366741744,-5.056088202346473,-3.910245566471791,-23.049463497103588,-14.115219912266603
2040.0,1.3622625023029642,6.91196821616828,0.5773135020816649,-5.894006923628665,16.831860393108162,-24.88912567508965
2060.0,2.0618028139510525,13.567711666049428,0.572819262498479,15.555436233775985,1.3621928444277944,12.797185183422771
2080.0,-5.24315718479447,8.09050799485292,-0.1573635840422586,-27.9448899409791,-15.562460598214608,29.9824271347189
2100.0,7.645185018294617,13.876114546209207,2.925192743047496,34.89042658171781,25.377175487179404,-6.701182406971562
2120.0,-7.178720071802015,2.5761121963188005,-5.175037855337724,-37.86416742254632,-19.904081341724556,-29.03603440370108
2140.0,4.651921017769871,14.836582920257342,0.7971310415712701,32.57459243995944,4.680010663813046,5.49812793025478
2160.0,-1.0691516211156176,9.177476650625795,3.928311703695461,-24.69025324199952,11.064063130782003,29.476814569186033
2180.0,-1.4888525481154145,11.733278165079907,-3.486904789224685,12.58695799407176,-25.03903476282651,3.7429766593904032
2200.0,2.308582365838313,7.317913613764749,0.5330093049344709,0.4405588669647619,20.66507174428386,-33.70653692510994
2220.0,-2.567542006287182,7.543487810783392,-1.2224769960762953,-11.263578461075712,-3.784057923376216,-3.791209550886945
2240.0,1.5029528496543112,15.8834832360544,0.48604397992699583,23.953245874895142,-12.002623998602267,29.206570329303876
2260.0,-1.5372500890330838,5.639788074632436,4.043716369319419,-33.77840152979602,24.130332811717718,8.934684145743162
2280.0,1.9654515180191803,12.691792382429366,-5.001526658182951,37.531013590406154,-24.470253572270796,-27.618681069664014
2300.0,-3.106460705606903,3.9735758242719434,0.5049798258258062,-34.32644913370819,7.832519926419036,-13.101858335134954
2320.0,4.642289465917758,15.614237437388477,2.694034047438944,28.581822545364474,7.751441068992278,25.385959460824797
2340.0,-4.778886639583596,8.739985897285163,-1.9165807106216053,-16.725553334060898,-24.77640366632631,15.948648910354642
2360.0,3.2705639754167124,8.777161454651175,1.6201306012667271,4.589051831712298,23.30290847650347,-24.246837977063613
2380.0,-0.8385232475266942,9.074908382738768,-2.953695976013196,10.330165248266322,-12.341302019386205,-20.89359522028601
2400.0,-3.063247437698264,8.715467407027761,0.1793131375945911,-21.35987187279926,-8.047354541523264,20.649721704521923
2420.0,6.070688106083899,15.656751288228833,4.600333746914302,30.193930982991294,17.927981901595103,30.89150726697555
2440.0,-7.033406077724347,3.422971421281831,-4.5178240047634874,-28.342105439037894,-24.47933402928437,-16.64379412090431
2460.0,6.055096921559364,12.735830486731764,0.5385461750825131,33.413229877351505,16.004586928780984,-23.036930254883163
2480.0,-3.3885536179047597,6.534908689618096,1.8936472461647185,-32.91170418628997,4.176150719946016,12.322017062151799
2500.0,0.13257064428100745,15.50717977386591,-0.8834984333617446,17.70670839154491,-22.383008243534942,24.554997921938654
2520.0,1.7538129642644575,7.582071212947716,2.6536365353127804,-9.598499047703243,21.609380608233682,-7.1013498299057
2540.0,-2.3361779936057667,7.117185224955461,-4.336593196859244,-0.9820272371417986,-14.802037532379856,-28.248024877172654
2560.0,1.1282646046175375,12.512098270099619,0.22097940461120935,12.928137917836779,-1.282971740111389,5.687886827971454
2580.0,-0.7242158691526609,8.471203334051358,4.426078045216091,-23.458098432619853,16.771990118857378,32.83739793274878
2600.0,0.6491903069027687,14.223515120671701,-3.5708005076925704,35.151893677762075,-25.739384928213983,-0.01778737310924411
2620.0,-2.5182648138652657,2.3144499495458533,0.4513825616964851,-35.046769412703746,16.20794728936058,-31.515275935932696
2640.0,4.123002366561147,14.47508342138293,-0.34698799172616535,31.85958958984096,2.138555165904587,-1.1880119597273837
2660.0,-5.512172341042217,8.457464757821064,-0.32920991503477726,-28.78947438664684,-17.165465487456437,31.591431723455777
2680.0,5.045398153379607,12.781759924577461,3.989873456755107,19.021602730129054,28.65609583975151,7.805073790324725
2700.0,-2.806535761422998,6.94906670163196,-4.511011657902587,-5.771548942450963,-19.54086028667971,-26.050262840789856
2720.0,-0.7238686405072371,7.758871216698504,-0.37717446578426184,-10.059028470804103,5.789037224099916,-13.658864664188982
2740.0,4.582426472861091,14.887954835568749,4.096999880511284,18.92011320788885,16.11187419765687,27.77722759633446
2760.0,-7.122257157054804,6.757645757701427,-2.8640752931468483,-30.94980731160018,-24.007418453007176,15.758086498753924
2780.0,7.256250771013972,12.965991010914916,0.8598020816918723,36.657176486255146,20.339685960106497,-22.457057873054747
2800.0,-4.981765622077521,3.1040040203142487,-1.9850127932322663,-33.18009539265694,0.415635148404383,-20.02276648724174
2820.0,2.2723329156273784,15.874919098667041,-0.07017280532255948,32.638593219547396,-12.533005464415286,20.224904868691173
2840.0,-0.09222452318816016,8.551159402558428,4.918358592374784,-24.049990314149834,24.19461213686612,24.26827530261509
2860.0,-1.4899453144732764,9.945215952458444,-3.6268004900618247,8.69775463322801,-19.72167745250856,-16.33052383188925
2880.0,0.9182030304236151,8.264328869272106,-0.42273649618593334,4.652209432146128,7.570301465054456,-24.408245629628293
2900.0,-0.13375175635482717,8.640901828017517,3.0729843024601835,-15.066251719523732,9.373735329197197,10.56812633201117
2920.0,-0.049137053627709204,15.87921885599671,-1.373804311993957,26.239207546294963,-22.751720694388844,28.291521741228955
2940.0,-1.1706476688405996,4.320398200696979,2.5150019435127646,-31.016888269915153,20.076404210215696,-12.733032160076583
2960.0,3.291438272271593,12.245572982516839,-3.0886410405145037,34.72519928196429,-7.877581918025804,-28.882684641467538
2980.0,-5.697456098715931,5.816433750875847,-1.3316415936070831,-29.585002221274245,-10.099146256921879,5.324919945886381
3000.0,6.015042487182829,16.019358310444446,5.366456598718901,26.58269977931928,26.075894927531937,27.51010775415659
3020.0,-4.54044072043944,7.5514934211463824,-3.0865682429154306,-14.984426828826637,-22.494149040394436,-4.930765493603643
3040.0,1.837382036661612,7.588800796910229,-0.30996646036886955,2.762807922331442,14.662722157310291,-30.661930749910688
3060.0,2.1482353535715744,11.240720115841844,1.2464695122005902,9.177429798365846,8.251899405121065,-2.0354255003722
3080.0,-5.478412909400872,9.055521853871864,-1.529840627722159,-21.821748566623782,-22.157583462533932,29.58302716736077
3100.0,6.7080731631145,14.532660151484885,3.557030265413982,29.1361218732977,21.58956875777479,6.780077688937564
3120.0,-5.818780774003481,2.5260606098463474,-3.5212234402453357,-32.83094041006171,-14.16718322846851,-28.338754516550917
3140.0,3.7462213755528473,13.469990132110171,-1.250966998501457,37.241591505689414,-4.810511897246356,-9.759018756482243
3160.0,-1.2239645451186625,8.10841821842795,4.505961933830359,-27.01574818816119,19.71025289114761,29.594983487292502
3180.0,-0.7337480772639512,13.867563914625666,-2.309205342011695,21.383198544931588,-23.574743811730013,16.243417819486144
3200.0,0.6201573110314652,6.375832913695295,0.36173338671967187,-7.553221535370007,17.09439948258005,-26.028477986899563
3220.0,-0.12274358595293876,7.932209136509026,-0.8193341548302882,-1.0709454887630923,3.481670236326146,-17.635503308750373
3240.0,-0.2799359350688439,13.817065392815762,-1.2162965962940053,19.064506756762395,-19.50442648294488,20.37749336264384
3260.0,-0.3223152112280914,7.913403626831934,4.805165373458759,-28.133724208019373,22.117806512393592,22.413105983915678
3280.0,2.1688342714620448,13.02282528105641,-3.8066722937584423,33.509896360493165,-17.39594636768299,-20.966661129603928
3300.0,-4.4391176988478325,2.7633229592493898,-1.58860518432436,-33.95082335622797,-1.3461000056852108,-21.665270010405926
3320.0,6.519505094550751,15.932426272575883,3.6518895743981448,32.26749060909387,16.7213471849776,18.18347388561216
3340.0,-6.823017736265731,8.601433851060916,-1.5475436597464285,-27.530544381295122,-25.765396711295864,27.509867297281858
3360.0,4.13291654417047,10.775516116307,2.1463223363432418,15.884186429953521,14.686757855136568,-15.72234404297127
3380.0,-0.27578863633351125,7.476578922041244,-1.5992456871878864,1.6466390905358772,-0.3511627352648665,-28.469346871107657
3400.0,-3.203844106393236,8.980128727659654,-1.832022863736842,-12.023371309685256,-16.61758613584575,4.037635047445491
3420.0,5.517100552113089,15.545567942577833,5.434284599616789,21.306398074255174,28.06902645165234,31.774492110252034
3440.0,-6.205392825417873,5.050951726543305,-3.045352342539553,-31.251975935380624,-20.988634202032497,0.916201799710084
3460.0,5.286817139706033,12.455966637057223,-1.9434467533569528,34.2324768606457,4.432881020667822,-30.07758611896257
3480.0,-2.6884498338786074,4.820384759867276,1.8703886308715363,-35.23982598014674,19.54689970607665,-2.82832087104528
3500.0,0.5172592862477228,16.43404289716538,-0.9273651747970887,30.236548598597164,-23.95146008216049,27.225782018103025
3520.0,-0.0985087795516229,7.237708124305402,3.7374058712136287,-18.442195557292838,21.06323077340931,6.465647001482699
3540.0,0.05725766379194008,8.663906141540725,-2.7381613168943386,11.557094856285035,-6.970362963006192,-27.631625289703564
3560.0,-1.0484149369224718,10.036649178122648,-2.511734685476468,6.091770878018668,-12.243031259232273,-12.447523547899136
3580.0,0.4810124008175569,9.705781145785544,5.447721331236521,-17.193297781009637,21.003589805745065,26.95442815238622
3600.0,0.6428248284524845,14.628669544067824,-1.7755270591502954,29.07724730383179,-19.565363182192073,13.034867333528704
3620.0,-3.628510909806492,2.5931760954855916,-0.40326345095063737,-32.937227811809194,9.527940252845731,-25.53979162153432
3640.0,5.7332089762475364,13.505867253644215,0.551895699023004,37.20381873532592,12.61236824591122,-18.2593877124613
3660.0,-6.8846986958365175,7.16067290295464,-1.659659077442738,-30.489821967732933,-21.37415020419582,23.09284602218645
3680.0,5.96025025016183,14.76243456120183,4.6939310766860824,21.636819413680143,21.887426315330025,21.00252683874043
3700.0,-2.9450719924903392,6.087959975038227,-2.5120307962679034,-13.262887380809142,-10.329356952265503,-18.770980880560757
3720.0,-0.8255254508972312,7.983824645598795,-2.8486011854966207,-1.4879054087042318,-8.283915680742341,-21.407499013362802
3740.0,4.039587614996296,13.2312964294151,4.138733715697059,10.101431979329536,22.195530825538295,20.450657533547968
3760.0,-6.081941270496175,8.766286690673049,-1.7803150839181692,-18.779482825634457,-22.93365159614133,22.752441282438802
3780.0,5.671202593129516,13.094976637861228,0.8854333183907471,30.624155182787778,8.627620133016068,-11.831378055978384
3800.0,-3.705561138301288,2.574583920202555,-1.120710088840992,-35.792240293428755,2.195285214594388,-29.244547581722692
3820.0,1.8646627390449562,15.617357479735327,-2.1435252721461833,35.28974975117698,-19.569129545097777,6.348067120754202
3840.0,-0.7106259246347081,7.909298095562329,5.439099979746866,-26.92158336078366,25.568763145535456,27.59676211684223
3860.0,0.7278810247546221,12.277235927830493,-2.5109549689236625,19.255908496187903,-15.915938872727363,-7.0480806708025625
3880.0,-1.220837131336608,6.127594561866709,-2.71378926029613,-8.66863963326422,-2.87997575535922,-27.580359740721093
3900.0,1.737325980639549,8.96036472762099,2.533097764580898,-6.70952542651082,20.53692171476471,0.7738615804498162
3920.0,-0.4915099571710415,14.899383235426981,-1.4632926431023408,15.698669361271985,-26.148402303912725,27.072239820776268
3940.0,-1.3802146490957798,6.2728202048494675,2.479553331799648,-29.662375535127328,11.783411965978072,3.5825531322747706
3960.0,4.301940768450734,11.763727863812674,-1.6779833021631538,36.702893472838,-2.3891781243492565,-28.452417950026554
3980.0,-7.092050441303158,4.2275366812578605,-2.843102664412222,-32.34011401260444,-15.508597107356072,-10.226393553533208
4000.0,7.029280216003387,16.47633810983789,5.312540454560282,31.297087094933342,25.944980495941383,26.228841591057932
4020.0,-4.891608679984398,7.239131964525101,-1.5653396119219045,-24.78168664828973,-19.616881737354042,12.200806140099438
4040.0,1.5628025386444175,9.478287779113817,-1.428164598816894,15.395666679826139,2.025056930800983,-24.340189630459978
4060.0,1.9296250016104668,8.526197847304797,1.296559303584953,0.6307637269419236,18.24248004540141,-14.907550727403018
4080.0,-4.389615142567085,10.0837047732513,-2.0368126619887863,-14.901837442863433,-23.664658707756566,24.82396030017324
4100.0,5.4422014221340635,15.156222236469327,4.074332351987406,22.922931997693382,21.082655685424953,18.010421163136417
4120.0,-4.400913094011228,3.4484192000948948,-2.19444029102482,-33.509330017540805,-3.651135192835934,-20.299848477186732
4140.0,2.477150509326537,12.783739764162055,-3.6963560392636245,36.273430635536656,-15.199743444120086,-21.458340915970073
4160.0,-1.4402445059218438,6.684164532322447,5.010524170812008,-34.24395103505147,20.96080484505832,19.04712667257168
4180.0,1.2145669808070205,15.892333257037206,-1.3010354291153767,26.742279653000416,-17.91426976072027,24.03639426072664
4200.0,-1.5879000732519273,6.266184182486347,0.09791665716502565,-17.06806744296256,2.9169843545371354,-12.54029092161902
4220.0,2.2315845136075123,8.094425611809237,-0.12072800994355207,5.5455305071117165,17.722066443406383,-29.0294600529944
4240.0,-1.641509111180193,11.534936886734231,-2.926162886216306,8.377843027475583,-25.9432520190439,12.530218608198142
4260.0,0.40328098246542554,9.628695279269623,4.956539884882656,-16.812137671547994,21.333540903906123,26.95070414206162
4280.0,2.617180024039777,13.327774940487803,-1.7047477496541759,28.47829258224272,-5.502195819883377,-7.148365930720814
4300.0,-5.209634319435451,2.2123153553665182,-3.47937976610124,-33.76921570226464,-9.400649721260677,-30.986373469664606
4320.0,6.806726619068666,14.744989931997127,3.0328882834247857,33.46956649592233,24.801280399728512,3.089171464183381
4340.0,-6.914927559151388,8.202124328004764,-1.3457338761248736,-28.2204192225387,-22.70376331428321,30.89928677164587
4360.0,4.32490749117516,13.528576391076738,1.7646967720037225,22.289407562460703,11.22281566874217,0.5219325722576129
4380.0,-0.45765112231529326,5.919699972744944,-0.961023812330895,-11.2167885214482,10.436916549101237,-28.778981258561636
4400.0,-3.020777358440189,8.997757955915057,-3.673608317105407,-2.8751712106756244,-21.115312357016375,-10.310829456313643
4420.0,4.50228674627462,14.37729602224046,5.248906244202124,13.928391413293816,21.763090550185545,30.54766310067326
4440.0,-4.639987590111561,7.487656874697051,-0.9298944181607355,-25.276650562962455,-14.329348560476195,15.690216378942722
4460.0,3.420372258665645,12.123846506387245,-2.5930965232101517,28.744570254104694,-3.7741791967711267,-26.567978734178155
4480.0,-1.878684149405295,3.2634551656189132,2.075939979524335,-36.47538219471106,21.40704504718798,-10.848376640899442
4500.0,1.248538519222743,16.851880787191867,-1.6657402227287437,31.747037268823526,-25.807556537039318,26.33376692650667
4520.0,-1.8121255501204856,7.620212385137601,3.4006475874915503,-27.951434035798897,14.259174406883501,17.086693618116794
4540.0,2.5723233584505287,10.198029771764455,-1.0024756093619591,15.209302507879624,3.825838420646912,-26.513756288902243
4560.0,-2.7731179655622746,7.36139905733185,-4.226879010696537,-4.942219397309542,-18.92793868850218,-23.936798213634194
4580.0,2.063890332444327,10.359919468364156,4.835938408892189,-12.072046741395477,22.104949759812733,20.73839188058953
4600.0,0.7013904098289946,14.335551212863123,-0.5950155894619062,21.61034374788263,-15.74599925295228,28.590815331959693
4620.0,-3.8126053914549694,4.301745069290322,-1.139490668427023,-31.83567337865926,-0.2855700125139873,-19.014786841375678
4640.0,6.97168260440197,12.221283810670037,0.7206566809061008,38.442664360962816,19.134560978981124,-25.94370952188077
4660.0,-7.369550928663909,6.117628851089299,-2.568297333938803,-33.51843531410926,-26.48706400704303,12.453641383864262
4680.0,5.767052185159209,16.820085574447976,4.4773755931551,28.667057193854873,17.406416770778595,30.783078774679886
4700.0,-3.041929551159547,5.964050464924399,-0.6506619267623621,-23.662243510628475,-4.563556516290672,-7.813372977457401
4720.0,-0.3938650370518755,8.639341785528606,-3.7319006859472665,12.930524572514289,-11.420650359098937,-29.17323006456312
4740.0,3.176448310144979,10.43244082921667,3.6176933972058505,1.629382445901788,24.330324178783627,4.368241295139145
4760.0,-4.433585269613397,10.100300140569315,-0.7852107308535957,-13.753887903768495,-19.482726195366283,30.043478256895725
4780.0,3.4497533440091854,13.476964216669018,0.10681903913325463,26.91840533460093,3.5063939147125547,0.5274113498887399
4800.0,-2.2706779375009627,2.452741167473221,-0.1987174401461662,-30.428213578732834,12.849253178246133,-32.03155835350108
4820.0,1.4700123850023716,14.712872038417908,-4.039998217351975,34.83177146149794,-24.20687398627507,-4.182937470666465
4840.0,-1.863778300721131,7.4246893089129955,4.889635395445325,-31.668064789783365,20.69243512728681,30.036589722980104
4860.0,2.4223748978057356,14.432482493006049,0.002495560796914098,26.9603347302742,-6.082462416746294,10.399149349590335
4880.0,-3.4805209117464218,5.111852093806637,-3.396356080524112,-18.092251315221343,-12.205623238211984,-25.77302104892063
4900.0,3.477874370919421,9.675213110327537,2.1106886115863683,3.4845652190629255,23.203172551174625,-12.771360307740931
4920.0,-1.4292284253874319,13.17941233494757,-1.1663600105515222,9.586866323345241,-21.114421891142314,24.201235280584783
4940.0,-1.5378609494456266,7.86292966825339,2.3116614823398347,-21.561222092410542,6.985610302181911,16.623576153980462
4960.0,5.199184419642337,12.210458342418875,-0.30275977954339234,27.85845130719565,8.551579494286075,-25.069964965120388
4980.0,-6.9097211103284275,3.303601566435317,-4.579171330975319,-34.506717157938894,-23.081818225498957,-20.67034585856828
5000.0,7.618652556576935,16.33454088802334,5.01931085338048,31.142242661684477,20.391295814887503,20.43129328354464
5020.0,-4.969447521617508,7.6029977058245235,0.06876528683409677,-29.095537805586336,-14.001559556277865,22.91294497124325
5040.0,1.7364881087071433,11.427850750718216,-2.268648279581298,23.520769496912127,-8.482827586425675,-17.169947864790643
5060.0,1.5420505076172308,6.288208759012255,1.4895560522752118,-9.541836110796691,19.687002942104606,-27.97735140790208
5080.0,-3.4970644186980744,10.552830307860633,-2.4447669610569056,0.5187554930849552,-24.53124145334677,10.739374660392293
5100.0,3.277788003340306,14.179363290275495,3.738262194468533,16.288660848999164,14.113486775790573,30.342906768588325
5120.0,-2.593114720325799,5.851628380481094,0.09972364414020135,-26.138241686245845,7.639304498843859,-9.771932157187504
5140.0,1.3498458239903037,12.12784090141485,-4.856858475898605,35.76756294992778,-20.912450982982342,-30.640158939952947
5160.0,-1.6753657812996372,5.341717314820165,3.5030801497191235,-35.390099406018564,18.743255312271103,5.269693371458983
5180.0,2.6004531982695687,17.151237239926683,0.037667564300591025,29.771328066974124,-12.950349977860391,28.733597330132575
5200.0,-3.522922151195412,6.455163455531471,-0.4139667092320486,-26.728690690001336,-6.3226584368023655,-2.1372266719018165
5220.0,4.330120774864477,9.5556537162722,0.8313558250764426,9.801183554922705,21.69370413967925,-27.892215498673327
5240.0,-3.3519799259089047,8.85520826204309,-3.4553750971166455,-3.3108665506402284,-22.619047527217006,-5.056512352155597
5260.0,0.7337121343587937,10.642860153870506,4.106021854185893,-8.836037206612854,17.319384357017505,30.284751680075697
5280.0,3.2311744584034776,13.607618684187425,0.4761522976422855,26.408328621894945,5.096456138730884,9.102873318289124
5300.0,-5.915107902060652,2.7350069833301505,-4.53536266445126,-31.48056969662344,-22.25236808917427,-28.812920717003372
5320.0,7.645122093716383,13.577656525458233,3.0300258300191687,34.672191221725306,27.490423681033352,-10.086357020969414
5340.0,-6.642749469949294,7.290262643011918,-1.0915393190304712,-35.774169905597084,-19.800819790684457,28.43635275805427
5360.0,4.160585215969193,15.145471971705698,1.1471690802855656,29.52377481928753,-1.0838162921023888,15.987816030407087
5380.0,-0.6920366136981403,5.068215913722712,0.4171288418123479,-21.66117344993651,14.89563825335616,-22.489479822714955
5400.0,-2.0930194312029267,9.249948779190554,-4.555034946573131,9.059075264304376,-22.730751785723097,-18.08917871918589
5420.0,2.6318394849369424,12.412686631204512,4.530630008914531,5.083584261330611,19.258769112220975,24.47142232776993
5440.0,-2.7315788880645844,9.375536207290683,1.108703119615,-13.755164887518244,-3.830854638376187,22.697274555055007
5460.0,1.6485860845432143,12.110972745497657,-3.3404233072112675,20.786698874127897,-17.109291560970142,-22.036287914998745
5480.0,-1.2405441221519844,3.196365122281886,1.6585221703078872,-31.8240317098033,23.527890306729077,-26.087755331725432
5500.0,2.1044825774383358,16.261152446906884,-2.5521021172184097,36.53639847418294,-19.24132615056773,16.831499057716247
5520.0,-3.4528249854206003,7.659685508320425,2.929481196648472,-29.809881516622365,8.855861431485126,27.64346727213206
5540.0,4.523739996639265,12.259311550543039,0.9095497160012757,25.760853204435254,8.869190925352605,-12.622545653594903
5560.0,-4.677680783290206,5.214984117253154,-5.047578661789689,-14.071194918479469,-23.08418965600188,-31.670643438963616
5580.0,2.3338881842285315,10.426831153593158,3.405208381497065,1.5864773325941257,27.07487658747045,7.225845925099451
5600.0,1.0362154187846269,13.99205943877858,0.9492040438035051,9.084645027759445,-10.469347598121754,27.55092404003195
5620.0,-4.1744110966741355,6.258290373971685,-1.660060817237123,-20.724081410232813,-10.355477920201748,-0.6819690813597141
5640.0,6.881863214135883,11.717580194747383,1.2700292063300476,32.60806085427445,22.386338676158303,-29.014286526815578
5660.0,-7.165891933379745,4.795057640028508,-3.059218586024069,-38.522565583432176,-23.812502548173246,-3.321665466955195
5680.0,5.099320177382329,16.984855575268618,3.3285495191484435,34.78475536846858,10.848835853311362,28.667552950354732
5700.0,-2.562392225827942,6.278780182841401,1.7924049647831062,-30.611454392237885,6.938104112489235,5.734031436263961
5720.0,0.107544192135208,9.781255927726052,-4.928985594249477,17.436025029169766,-26.312333687345195,-26.97545627002315
5740.0,1.8673468585110928,7.859849109613816,2.431876934849873,-5.961275878888706,26.339432951338313,-8.344339694771916
5760.0,-1.9310932705811832,11.198508484363128,-0.0100420048597126,-4.062893316800302,-10.672551837981509,30.71970680951962
5780.0,1.4646312970338213,13.607782215185233,0.3305221945602663,18.834113141170135,-6.735866739195276,14.233652256634947
5800.0,-0.6038754077090476,3.877348721473299,1.433560767737943,-27.637960127070585,21.012490677504196,-25.25585574596866
5820.0,1.5475097448434385,13.17925790800358,-4.785477862151837,34.773591829102905,-25.490558404848926,-18.134195325543686
5840.0,-2.9603498356198115,6.627429460941473,3.1526302828961947,-33.74033632155836,12.21545644539434,27.608858560522357
5860.0,4.569247444094894,16.005012041719358,2.0737099444193765,36.779143897603035,2.971387878452267,20.202305487516337
5880.0,-5.34345402996068,4.631773757533466,-4.034866621143649,-22.729769857936514,-19.22519947506978,-16.05052226060142
5900.0,4.839524155115955,9.482856744307922,1.8223737430761042,11.278306888123113,24.024607191987624,-22.935981096463156
5920.0,-2.2131260267723483,10.982290562039887,-1.3600148282889752,2.8781451307648056,-18.54239907231807,15.259484650365804
5940.0,-1.7486307558931165,10.167030095793756,1.6080044660441952,-13.77400056772849,-2.2883127305218145,24.434638938414416
5960.0,5.075407237770776,12.43401883950524,1.757930282003026,26.401371263308953,19.44178353455039,-11.229667346073994
5980.0,-6.886388462590623,3.223500047087664,-5.292106911004316,-32.38209974307817,-27.449939416975813,-31.319766553404655
6000.0,6.7917249762016265,15.076011433281927,3.171284747359318,34.9890279187602,15.9747443150307,9.888271353791424
6020.0,-4.6012686062874355,7.882872069151351,1.5537529372364585,-32.635260993972295,0.12354629908586034,28.575868968961082
6040.0,1.567791389418067,13.671549884670265,-2.7466988406843935,22.815833211572393,-17.357144293653864,-0.6144928397304077
6060.0,0.7281258085847673,4.619545653594418,1.2302525753869642,-18.381551615059706,25.223498116616813,-30.735735475973225
6080.0,-1.3412946288452714,10.769809114072252,-2.9177022533666097,11.816515197010915,-20.16239216636193,-0.8875536919612612
6100.0,1.1613016742818298,13.349150863951241,2.2511871404818855,6.070132813735122,3.624038819500472,31.51827179181031
6120.0,-0.3900513000628992,7.28822424256749,2.77490100740017,-16.805197577814084,11.384355212673007,2.7487790249321935
6140.0,0.5152285490390796,11.727676688701715,-5.044425997725418,28.160716030502808,-27.406739002206567,-28.865410878697094
6160.0,-2.099567355441325,4.204548028615128,1.82627129831095,-33.36669108216575,21.072567344394965,-10.189683254970886
6180.0,3.957344350003111,17.186774996642857,1.0202335172539208,37.104591755747464,-6.612728471699734,26.192762671643663
6200.0,-5.585363471868514,6.823272244493419,-0.982829487438549,-30.266420940661916,-16.15898935548087,12.046738580072336
6220.0,5.923458845529394,11.170180791277824,1.571641215708056,20.125374731198878,22.094858467716893,-24.815874750981877
6240.0,-3.9915026915499725,6.4739449914087634,-4.056210597396464,-8.921209390124035,-24.892187468352784,-17.38476904141134
6260.0,0.8720107778602153,11.530493341821927,2.5964658715984075,0.39431535953322805,6.005599265887366,22.676187324955396
6280.0,2.8646164754121575,13.423814777538622,2.93574812448609,11.126965202258976,10.706215804120063,18.876888599472423
6300.0,-5.890251468407605,4.6385510672466115,-4.775519115279161,-24.122879455992017,-24.201858185983546,-19.76564626882378
6320.0,6.871773937045412,12.503258483560792,1.400277637179083,30.023096171988705,21.0043491945913,-24.77427431455539
6340.0,-5.73462533984834,6.303525621351244,-0.05678214083342356,-36.23879534700579,-12.482291367794929,19.969964678097913
6360.0,3.145215588472827,16.87678454151391,0.8011566064975983,34.3749518194576,-11.23733592395697,26.553573664630424
6380.0,-0.729316341593485,4.671866159518974,2.295643685966653,-28.91326332500642,21.28398204287877,-14.245814373711061
6400.0,-0.45846668400717905,9.93465726013587,-5.32759993120793,14.349314883799096,-24.773600251043206,-29.710162341803247
6420.0,0.4900956045642412,9.483049856726186,2.220504385792743,-7.238170905938805,12.2640690573099,11.499885253059094
6440.0,-0.5221041739590087,11.09647164649546,3.1019549288459434,-10.243565059504983,7.9358218723660725,27.37418833002955
6460.0,-0.17558487420782967,12.153147081754652,-3.2733538444930907,21.336630939836073,-22.067259298783647,-4.338902434349995
6480.0,-0.7355070462609878,2.803999978039639,1.7273244539446133,-27.31629556037636,24.404363498684674,-34.15421584158903
6500.0,2.8281020940901183,14.882835238318936,-2.0481357699380958,33.88945666254503,-16.213216896671767,0.9420693524266112
6520.0,-5.148092063233999,7.357067320470903,1.4691878986109705,-34.82866778446057,-4.637453480698023,30.162077878840968
6540.0,6.589510878475667,14.466541956207788,3.126526396366803,30.871349695970675,20.42968155150527,3.5081437464019514
6560.0,-5.835870792496457,4.229493601779353,-5.367969965216672,-21.84448976901381,-29.471046661874315,-26.711303478495005
6580.0,2.969566079566401,10.548579374288794,1.7374950974449872,10.524494825705583,14.944462532033452,-4.351198444584697
6600.0,0.4493463759798682,12.460059468669744,2.0983689343786356,1.7190696419162803,0.5360428814987268,24.24630195753497
6620.0,-4.030605821034562,8.357771007279945,-2.2644482832970834,-16.298475429232955,-20.662260812555335,10.24053439702498
6640.0,6.381409027866552,11.246365445686214,1.672851251697031,27.205368354927472,24.88663235235767,-27.59119107851186
6660.0,-6.451798160863627,3.971172073022893,-3.792041454979391,-32.6801041975381,-16.163271761064824,-16.72727275636903
6680.0,4.944109501553532,17.098655671180676,1.8883615385829697,31.12334831186237,2.9399908330568874,25.751153779483612
6700.0,-2.2996088395385543,7.329951765107525,3.4934167957997597,-33.22604493563999,15.853937191807832,20.498779183362508
6720.0,0.6340656169872328,11.62448133846403,-4.9422272204606434,31.172375849732703,-29.23301982282731,-22.49383577742148
6740.0,0.05253331947203754,5.767483259852126,0.9316610372506013,-15.633587879832481,21.00089852391495,-21.302393355897
6760.0,-0.1320463539834555,11.971607862869158,1.1742291699732303,3.655033013373583,-0.3474711318555368,17.986096565736453
6780.0,-0.48464054878904084,13.022815723030286,-0.18062058616027588,7.565197097663953,-12.948678408217269,22.709075412611732
6800.0,0.3705361668246925,5.580144144950786,2.228999145393232,-22.407276472207762,21.910790000772373,-14.711579398595314
6820.0,1.280097001649651,11.813695023163714,-4.647585231690656,30.606362264814074,-23.51932774440245,-29.868935424644565
6840.0,-3.409799581586187,5.886030713514102,1.6731984727353773,-36.283083483529765,3.6157005919959118,9.744478450950709
6860.0,5.9271213660249,16.975817187896105,3.7486371957634645,35.73328894505309,13.362585117427816,27.76890771940298
6880.0,-6.783950427577769,5.198145912708422,-3.6011205523811274,-31.109072872395735,-22.10518058824467,-4.195551504094793
6900.0,5.2227744143157135,10.406643374111415,1.0207018999599848,22.107976457447243,18.99440976709826,-30.00661141125408
6920.0,-1.7510980598491652,8.744789461963558,-0.7365978797485071,-12.684634983193005,-9.379655309170172,5.2273155710789165
6940.0,-1.2764324105306482,11.622334909958688,0.3767146162443073,-4.518089710192276,-12.529976102919148,30.993735153267906
6960.0,4.881988618465345,12.065415415226894,3.3507828402437383,13.60266142312267,20.336628667153448,2.9818689675676704
6980.0,-5.846333487794438,3.912269082737673,-5.191949766276829,-27.80785194586686,-22.58167289531251,-34.21892931404068
7000.0,5.4640818000344336,13.826718933700477,0.8924009195751904,30.430161057333965,12.874452725100548,-4.27334196745171
7020.0,-3.8218286402998105,7.0866625704326855,2.970910480056311,-31.735817736652137,10.414565999343047,29.176613469255585
7040.0,1.7022750590167606,15.406985738845831,-2.493438568643619,27.96379371387243,-22.617019598461628,6.947887019810617
7060.0,-0.2638494063703612,4.1428304277960635,1.3704911909047643,-20.218232659293125,27.727183886590694,-28.245310825100354
7080.0,0.7752295010461181,10.74378453005072,-3.206988422180941,18.23863226353587,-9.172165887183874,-12.907754658407375
7100.0,-1.5742378210396089,11.752930895699345,0.7525357085220884,-3.625217848541306,-3.690755244569509,21.75982481817448
7120.0,1.4135326907253314,9.711725859292223,4.095238182488686,-9.430275853176681,19.93740089052814,15.143884090539725
7140.0,-0.02570916705524856,10.91462232858299,-4.70282628480866,21.169029598448244,-22.462804004844788,-23.8841704685712
7160.0,-2.0263486147310714,3.82884910904021,0.35096462566470643,-27.372135984673065,12.23654699416771,-22.97472087615821
7180.0,4.852767033616866,16.200335303064385,1.7563564296591458,35.725065826405974,0.2812265970331933,18.45944064624263
7200.0,-6.6389181188359,7.130049003011745,-1.028963198524793,-33.34978629279542,-17.496047268086816,22.792678237897736
7220.0,6.179543247450804,12.661244330468223,2.599099958791271,33.08091631610124,28.69385756795997,-12.881284213933954
7240.0,-4.771844877541428,4.666733389302371,-3.8021331943502434,-21.90152306423356,-18.66163755154234,-24.267318803828097
7260.0,0.7268321822259302,11.938116082170305,0.39573237161927033,5.7280377358409185,-1.448058734902288,17.336800414945415
7280.0,2.733782594362434,12.889828937771387,4.596753663131166,5.6866250457064025,19.1153606508644,24.468781463956645
7300.0,-5.078872653074453,6.549013514071792,-4.182710827656445,-13.760720051940003,-27.23167627857961,-9.129330552169748
7320.0,5.560152937739546,11.512055514626699,0.293395437359401,30.57054988475656,17.596020701275048,-30.455545909668498
7340.0,-4.05424947700979,5.949024251786451,0.21579521816766112,-34.475373988109915,-1.7263751839997483,2.7030268236835484
7360.0,2.2017211173486526,17.084435229023345,-0.24078185596879437,35.727567185638094,-14.088880386563464,31.511193397361776
7380.0,-1.0534431189045146,5.253929444627876,3.7009832958605506,-34.98869349194503,28.84035875490143,-1.4933515474537762
7400.0,0.9698238158286571,10.998717823634838,-4.916524448502592,25.869570850935606,-20.837304788536773,-32.94325425930311
7420.0,-1.717715314683728,7.410497663963345,0.248338661980804,-14.614269266442763,4.407608088600253,-2.4913691071575808
7440.0,2.025546565704978,12.614794405082513,4.044218776355279,4.102851521214873,12.40314962396263,31.88255736307626
7460.0,-1.7236731477484013,11.823393754002652,-3.0532086349371994,11.853204628329072,-24.699810222596472,8.437764745646477
7480.0,-0.3191968206871821,3.919230462750262,1.0421627622366705,-20.82580427158706,24.75750378165437,-33.05582822712342
7500.0,3.17438249539515,13.088146674578196,-1.59978354473072,30.57246926302208,-1.29999019079073,-15.666227886527318
7520.0,-6.165850260642737,6.720541346981463,0.008967285488603205,-32.665642303012326,-16.190022570215827,23.67383879093016
7540.0,7.522522249330409,16.170454688563368,4.839060001793814,33.927939558961896,23.85765436251626,17.5195494878149
7560.0,-6.452287378441377,3.6297743724969944,-4.058799493325215,-29.00211917907274,-25.112243219643034,-22.77349316655117
7580.0,3.5894281196564752,11.30192280586817,-0.35253433155724645,20.62472432803843,11.015409417391773,-18.440817080510648
7600.0,0.37948709723487595,10.045390955184615,2.9973624317086087,-10.609433003888421,9.277061324613346,19.779434900870186
7620.0,-3.5394516925012924,11.269065403512519,-1.8428738232766366,-9.240765521546937,-22.998230419646188,22.97325162435095
7640.0,4.70058912592903,10.907403496002148,2.25895847889617,21.32998080947333,19.657506915272386,-14.018535823290016
7660.0,-4.59871972544513,3.903066660804401,-2.69074158949008,-29.106946142379925,-7.427570343890501,-25.935421842312113
7680.0,2.836595978106958,15.987313125611447,-0.18834120036396296,34.18831426304899,-11.776792960692536,15.975236089875882
7700.0,-1.8190704174712184,6.977719416060193,5.031010056435522,-34.242168100448055,20.984841677365996,26.739273762862478
7720.0,1.672512457756224,13.476810150408866,-3.985434522067668,34.25165841651917,-24.442026313724444,-11.671325340967124
7740.0,-1.9381337234558957,4.153150064151188,0.061349230792176024,-23.920274157975363,13.045083535106095,-30.819486326544247
7760.0,2.5861226040362704,12.348024228455948,0.8678527147540576,14.735441818811923,4.86815715233072,3.6599632616988345
7780.0,-2.6914602910124454,12.068195409705247,-0.7683536234980173,0.26863427233413617,-24.54043855768021,31.78630666213345
7800.0,1.5399293559274263,8.37744855980556,3.346971807748433,-11.869441336668329,27.163052899999283,-3.1796061295369897
7820.0,1.346805071353313,10.437435856245667,-4.047248078991035,23.151942889641912,-14.858289000049174,-29.158117011067237
7840.0,-4.509442639151108,5.128892885010389,-1.175424712290818,-31.567070032262556,-4.906197996525959,-3.2364485370083056
7860.0,6.8967313002415604,17.073795480343293,5.176408712305207,32.52198489235971,21.427930599096943,30.241568479842236
7880.0,-7.403130687688592,5.777045659241164,-2.9131530640699816,-35.62708871257775,-23.81142075986359,7.79179865888562
7900.0,5.320636020578573,11.678904830477096,0.22255434775058558,28.534972938327854,16.421622805769964,-25.973434379085223
7920.0,-2.2221279036566672,6.189168300516978,-0.5463274506777913,-18.302653660654908,1.868154510460327,-10.72652363199418
7940.0,-1.4700271065093098,13.321493211727002,-0.9496748666065232,11.163075075712584,-18.23987093682391,25.807490061991437
7960.0,4.0098512351055025,12.007281580110126,4.39097662857399,8.229167146639663,25.45275063482847,16.663825186300258
7980.0,-4.811128191592019,5.2720393737560185,-4.188638068884357,-21.307686615521604,-18.034795426224314,-22.877810639234497
8000.0,3.616692993298256,12.078202636657235,-1.370414056462024,28.052940115276133,1.3707066861564607,-16.008647307722377
8020.0,-2.1690942334988823,6.773953526091149,3.8404085454516834,-31.837477334521406,13.903468098723808,21.485540757631252
8040.0,1.3576102570496364,16.407035195652366,-1.9096368179888286,32.846181530997875,-26.97312193249398,21.240272424738617
8060.0,-1.6013380667445174,3.9869742401216484,1.1123115408549853,-32.45365516590056,18.2933857011317,-18.53303919952312
8080.0,2.584753685838116,11.32755118967906,-1.7568481479487355,23.668654027324127,0.3063940493961197,-29.30437151406123
8100.0,-3.316054756992735,9.019276191354185,-0.7374710778195674,-9.061390364549812,-16.07360940633998,14.755615878777043
8120.0,2.5862658241040077,12.113318011076831,5.299500423639135,-0.321040731602828,23.710347703585434,25.161949266578638
8140.0,-0.7265947607408791,10.7049807819844,-3.519988175826504,11.901453569793548,-18.055254709570814,-12.546161721640338
8160.0,-2.170334693556551,3.9253945678731808,-1.1207382230181646,-18.328504394535717,7.470637485949476,-29.90279667577948
8180.0,5.549783438388346,15.057401866645801,2.0563973309385393,29.967676769925053,13.233331798966018,9.196645378511022
8200.0,-7.415882395901868,7.371916614976018,-1.1908622012401844,-33.02363818821894,-20.954561811748412,27.783444042953104
8220.0,6.920177240137211,14.341732003285973,2.771325756441257,31.469807644039914,21.603211391457783,0.9879310619551926
8240.0,-4.240316355821372,3.4710324365346863,-2.898901871003633,-30.601197847226835,-8.822507658989505,-30.409581346068574
8260.0,0.866885384219459,12.120069954360355,-1.525419139248993,17.058810019909792,-15.135899042563414,-1.2686367895519806
8280.0,2.468956629142252,11.577493729166276,5.147966374846288,-1.7001052533734922,24.78563247957853,30.478965299944935
8300.0,-4.162092732703272,9.09844255113732,-2.934639232946417,-9.755344816407966,-21.559432429590146,3.2045451185931215
8320.0,3.4241077622153973,9.954443814641746,-0.5038267486818068,18.87376203581761,6.307291750840715,-24.51188084286232
8340.0,-2.794183693567509,5.068665913218961,0.4486676520513204,-30.578388807340136,7.427493329902084,-15.194037513535024
8360.0,1.7309189377478615,17.03954938550711,-1.6132908033982585,30.96054385478281,-24.02782021468497,28.792947618317356
8380.0,-1.6112372927734446,6.223973362079785,4.2945164769175355,-33.33141036666491,25.953118369477565,12.366777895988617
8400.0,2.621023802467046,12.019586032484186,-3.4356466604055185,31.699808078450527,-8.839259888952624,-27.127210628247788
8420.0,-3.713070283846263,5.04937071342242,-2.178019410715612,-18.962134080009857,-6.035170980116746,-18.96946188294507
8440.0,4.390757156516982,13.535820168040338,4.59039213624348,11.989580769422021,19.566605763757146,22.326185301568128
8460.0,-2.6767060043475186,11.859391254867965,-1.7135577896435708,-0.8971109633238574,-20.867822679847293,23.270740348600587
8480.0,0.08678288535589368,5.91569856284021,0.7340270815303273,-15.873939804214169,10.414079271128127,-18.989955043859908
8500.0,3.5307501887485326,11.714280483737332,-0.99374422820569,26.42171926267658,3.4513570199791683,-23.841893447010076
8520.0,-6.673160444324299,6.377125688875919,-1.540451180527442,-32.61727581646343,-20.147681494571675,15.42241895449983
8540.0,7.0626174181943595,17.35515590999376,5.176294593942429,33.787828244748795,23.941939601677824,27.17684527371016
8560.0,-6.168954859816228,4.134500723031698,-3.055687621685663,-34.0192082710623,-13.285976385823805,-11.729422605447889
8580.0,3.0570258850361123,11.50877488666505,-2.0107251839018505,28.26121249978691,-1.314469643616806,-28.84193559452133
8600.0,0.12903053638101133,7.900285902408449,3.3432560314935578,-12.942223077454198,18.275960579421433,8.376546308496604
8620.0,-2.3409224600598195,12.923020474807936,-1.6433032945623482,0.2144368423209677,-27.52765629365913,31.286799648790442
8640.0,3.2928348947739554,10.457872853950734,2.6093166476116156,4.492746749890965,18.01506943374074,-5.9131127857732615
8660.0,-2.8578528585015777,4.5505928387015375,-2.171462786995891,-22.123360807803426,-1.1428267534139633,-30.623811743111087
8680.0,2.065264508074744,14.159561165410814,-2.089173257122768,28.288642455360034,-14.546546140122247,-0.32064185571904474
8700.0,-1.4891541152832872,7.33785351913748,5.4200646148546685,-34.88818957969361,27.413318904378706,29.889279711407998
8720.0,1.92000752974848,15.032583710775675,-2.2706420724271905,32.91860818243247,-20.04352272009208,3.4460027365979737
8740.0,-3.5313234592226728,3.3591360592311474,-1.4765378556589914,-31.026342484908678,3.9149628485735577,-28.170921689238885
8760.0,4.555249507678032,12.023563077480134,1.0874051836501188,22.599932368077944,14.305682208071003,-10.32376469019254
8780.0,-4.465663459152975,10.674820656608727,-1.4902815190594758,-12.352975039390014,-23.479422121905394,29.429692347402458
8800.0,2.2605654603375287,10.403255355399548,3.8100256306712765,-3.7011439881431345,24.587158910477818,13.315556147876556
8820.0,1.2238638148344616,10.181742593992446,-2.51238472463403,12.756091834818799,-2.7990978722986326,-23.37572569834055
8840.0,-4.866363387744036,4.63593955731321,-2.6429356574380583,-23.743488067103524,-12.948826509179256,-18.185049696619995
8860.0,7.132496294285508,16.67550241192093,4.956533974348534,33.61961668013488,27.028761999035233,26.047482708000054
8880.0,-7.162278518575585,6.389361669631279,-1.8712237891722097,-34.04578556386736,-21.28362492521073,18.78835770120695
8900.0,4.90239105411135,13.31672678240586,-0.2917843856664824,28.860328558765293,6.06109329914462,-21.580846499526693
8920.0,-1.9419667673265044,4.477402161800992,0.26951132357163543,-25.25804429990052,9.7437539858904,-26.342510674014026
8940.0,-0.805969674407546,13.50545605824346,-2.010138546381552,14.287913806201239,-25.908075522730396,19.478357378044105
8960.0,2.4309698496808654,11.628717982651438,4.781118895324358,-6.277507453231656,24.75361567468024,24.3532878336642
8980.0,-2.3100164601474527,7.172075815908439,-2.4479145751936215,-10.191845762462542,-10.490575499421537,-16.126010234359498
9000.0,1.440283496944403,10.170961715169495,-3.0751237461282313,19.87181727273069,-9.143317975235632,-27.82510930060075
9020.0,-1.2681115255983113,6.3796519978142525,3.677502490616048,-28.958403991735725,19.805197457472175,7.02954804694401
9040.0,1.780553479728606,17.17823519103534,-1.7408479116203646,34.26053509906193,-24.05712157527621,31.30651961759492
9060.0,-2.9289085526929717,4.387304930989475,1.424526338379629,-33.879571129912065,11.655224760012883,-5.292229926028145
9080.0,4.929178718254617,11.583084377489287,-0.8813127759081723,31.489232276995182,3.141964184437057,-26.582837719003184
9100.0,-5.059149282022693,6.997791623808973,-3.056313753190661,-22.310226422483098,-21.124895396998628,1.0474171492763884
9120.0,4.092396001150911,13.775066430010677,5.0270660922902985,9.349647237471013,20.968188550568126,28.715836623404932
9140.0,-0.9532334809387103,10.515480852107785,-1.5219932864950816,6.499132242830482,-13.692432398548217,4.9652570178062225
9160.0,-2.766527835754957,4.92856033354457,-2.312874007760886,-16.462965566617086,-6.231945514293872,-32.217550748678946
9180.0,5.766598513716337,13.132462961583471,2.190948652174078,22.80307415505646,20.305407946687396,-8.816411559556308
9200.0,-7.244919688212553,7.389724994058825,-1.5626620317877076,-31.986004787002305,-21.926486921250355,28.75659142930266
9220.0,6.31902440654325,15.74287499148095,2.9058513499397036,35.67955031631383,17.80944515873555,10.626249374049765
9240.0,-3.948900114938379,2.7737558113966405,-1.7867228625000608,-32.181601515305026,-0.6236499843259722,-26.356447453594058
9260.0,0.9959131985235393,12.089284090770676,-3.438876423417626,22.614571617934047,-14.631009905482086,-17.402703634935797
9280.0,1.4166045587381682,10.04716122967119,5.204879477421053,-13.10951469812212,23.358441625018802,24.83234948272085
9300.0,-1.8183077344601692,11.573151032586326,-1.2518717465551474,5.789477998605744,-15.82584642118335,19.259583915657384
9320.0,1.4060694917118106,9.77924448213233,-1.4932205248216444,7.836341719629678,3.4706715193933557,-24.963153797364825
9340.0,-0.9157402577135488,4.633381338506956,1.2649247495336766,-20.652525542122202,15.41647125264934,-25.77095415227399
9360.0,0.855144069282817,15.69250559231701,-2.2087263199502702,29.265690077354453,-27.71301855083125,18.275189957441277
9380.0,-2.653463285576075,6.769457065476299,4.084844410741594,-39.140542607526,17.77591016635506,25.139160154173684
9400.0,3.6948333953546113,13.5274350022692,-1.2691700856058816,31.291898045469484,-4.929377858073943,-14.734676591521723
9420.0,-6.021578225977986,3.648069497360229,-3.9147719542214596,-27.04950770566784,-12.061753057882553,-25.169013139233286
9440.0,5.643814456192854,13.986296470112464,4.020213821330924,18.79480759312118,26.445355587998478,12.021364126753355
9460.0,-3.4998949504349524,11.407858759591313,-0.9075896512251501,-7.085828181899039,-23.478833118513958,26.686679852834853
9480.0,-0.13360747585796673,8.420998222515,0.11981586350836025,-4.629994987036332,3.019437135482252,-3.8697623933393333
9500.0,3.8503602435732516,9.457784992203809,0.10597241493995324,15.461096329883148,13.489968826495241,-27.62274800411423
9520.0,-6.602905108435219,5.731888207347419,-3.18989513239267,-26.633687764175093,-26.70672043720117,1.6665986265541861
9540.0,7.123751191797776,17.0953357914286,4.872006497723934,34.227037203846315,23.662325053570132,33.240552551366136
9560.0,-5.316378993214865,5.011062725178767,-1.1677359894676584,-36.00083983014322,-7.353996507817619,1.9341160285017112
9580.0,2.4583355785129397,12.003444783760202,-3.591224731890198,31.392449606383202,-11.723752983965625,-30.073520025113158
9600.0,-0.17168486172327646,5.693947623696895,2.9123486113760766,-28.408348209639414,26.728455198709714,-8.590071812227517
9620.0,-1.322127610194668,14.334961601540655,-1.7514821882839111,16.01897125637992,-22.984082737126524,32.200434792776015
9640.0,0.7582189843335718,10.777566696791435,1.7826033652538131,-0.4236986216219294,8.112360322641706,9.027162218842223
9660.0,-0.5048423635530193,5.6543600007881745,-0.4489047203660717,-13.461576562951809,12.000007705852079,-25.82193420470639
9680.0,0.3593933014283063,12.09546892078083,-3.9343456774277783,23.929311847476885,-21.11837569206808,-14.559951483942106
9700.0,-0.9743233718404554,7.439798212250961,5.164258921576821,-29.666992817365546,22.91331340402965,20.99897061786274
9720.0,3.1642481170759895,16.255526200968028,-0.8938324014438495,33.436891450439205,-12.364216461270148,21.065897824594796
9740.0,-5.353922227623494,2.9746416346576523,-2.503341996481354,-30.41740511450581,-8.33442217226334,-24.292803794420514
9760.0,6.075226646502127,12.021763218527317,1.597131223876413,29.166725913470266,21.418773287846182,-19.95307069071248
9780.0,-5.486022390897479,8.633095993129261,-2.298317645456301,-20.62434265184722,-22.885643883049653,21.40793023054311
9800.0,2.7095868564359322,12.51789655433457,3.6793866150029526,8.104493981013377,15.166271117106543,24.144462836308385
9820.0,1.3468985550685701,8.909616705837497,-0.35567385441403493,9.265710724443018,8.906192801481435,-17.680901997017365
9840.0,-4.548472908812035,4.902114769684261,-4.156182835661241,-20.087303451468493,-24.38370978437202,-24.25276314621036
9860.0,6.648377296254949,15.16704204706738,4.290860433505638,28.88348476505515,27.09302772156792,15.346156924729453
9880.0,-5.884353834517603,7.381758341539066,-0.6322210756367826,-33.84201981451019,-15.620216248996115,26.512115142171904
9900.0,3.9176401620093206,14.368431013196476,-1.1058555851736844,35.50634269298438,0.13195003244757775,-11.088814973491699
9920.0,-2.1559316040471743,2.775956820536697,0.6635426818167561,-28.791352869941083,19.766771817042898,-30.521497470292772
9940.0,0.1196258240132104,13.59718837056093,-3.471108838061584,26.507983679330668,-25.203426741042396,3.747895341967507
9960.0,0.7144670545646672,10.306302417775939,4.561306787606509,-15.077520010539484,16.09427476755089,30.94159765835655
9980.0,0.15574231740638148,9.863184256047187,-0.21264776806069152,0.3028486950901355,-2.448264966763712,1.0646350362215264
