timestamp,ax,ay,az,gx,gy,gz
0.0,-0.16347144194112298,9.93955943030935,-0.12163145762240553,0.9799283950327751,-0.014167598884815783,-1.236713768615229
20.0,-0.3215654554051097,9.1053373176709,-4.074286460835888,14.085719991185734,-17.483125533918624,-27.632932381322107
40.0,-0.19455697081379142,5.935599460155723,3.0152180824079244,-25.2405881176916,22.616312622084443,-5.688800875034104
60.0,2.1351092230489828,16.837266470514844,-0.8784070475927372,32.25823122620581,-17.217372480593625,30.25407360597824
80.0,-4.54162703585214,5.355110216236225,1.0271252723860538,-36.79601267219019,-0.46014494423286845,4.628682040790476
100.0,6.169188500211652,12.342846199415582,0.11836708689891609,31.85389108541643,15.369508624359478,-28.864118614537464
120.0,-6.386151554361218,4.93638981627587,-4.372554884733827,-26.52485694237136,-25.971065851780484,-13.890553878519624
140.0,4.650154553119743,14.648123095514906,4.892594287270475,16.867772384752286,20.651481367586534,25.69622909612685
160.0,-1.3279934937776419,10.232225100967328,0.09747967416552189,-8.983211696714385,-2.0392166096849094,14.412554726482556
180.0,-2.6044483860939125,6.889148567423797,-3.2662285888369444,-7.924752726725862,-15.304094718224388,-28.866950442387072
200.0,5.643530034692854,10.797805861734041,2.1426321180414893,21.470062789289138,25.900050395332595,-19.165828910690532
220.0,-5.953922307018809,7.4572686155223895,-1.5069375460866477,-28.7266157087809,-23.92942932795093,19.870102745865694
240.0,5.193287831383027,16.479877018570104,2.3768634767109047,38.556582891145155,6.559035626571979,27.48831941492878
260.0,-3.1489101283769285,3.61163984266891,0.5074542141896391,-30.17076509239493,13.996286847099226,-16.51734779865949
280.0,1.2962839142333844,11.836253304859301,-4.950233526949324,36.03723046381202,-22.731755374645548,-24.79980896835702
300.0,-0.3908130426212597,7.772927887248326,4.138821056042673,-19.91095658992012,21.894189195024317,14.128712351500527
320.0,0.3674248785307576,13.914681202483651,0.4022682388609616,10.301459901560364,-11.630492947783335,26.303726204346773
340.0,-0.8671545906068275,9.004181202795564,-2.131424759589328,-1.5131311541575587,-7.19709948493462,-9.769379332007713
360.0,0.7951267215090507,5.091797683483726,1.4835764599251262,-11.404531162622291,24.348321501440456,-28.53265944386354
380.0,-0.09186378177095422,13.468474038117252,-3.189729565474554,22.880877994680677,-23.927601816961108,11.190454376738149
400.0,-2.982153864248609,7.679941716375418,3.8069290505662314,-32.26697617716204,10.199264677980167,26.78636307554486
420.0,5.205976674581375,15.15276141594317,0.8502155091876655,33.49701491111581,8.38559039426716,-4.970813703496627
440.0,-7.270513062811547,2.3596990870372934,-4.914889025214363,-35.294313863667554,-24.13928984748384,-30.05228324104961
460.0,6.233582121150147,13.213171726850996,3.066241513650364,25.535666171840646,22.385399085689226,-1.7371184700527902
480.0,-3.7888819203292416,9.890566965973793,-0.12090446386350817,-16.085694183743165,-14.961815480182214,27.496536333768947
500.0,-0.10954752634570727,11.215900327457705,-0.16224272059529643,6.42363443423605,-6.3342755633028816,4.574762020736672
520.0,3.5129109298766044,8.56786166796059,1.0128372595192152,10.249215328343306,20.511615105975032,-31.01712354399509
540.0,-5.449384878605036,5.954413760676891,-4.1996621073336,-23.498610268107463,-24.6985508929235,-10.922024066611856
560.0,5.593511670652277,15.69167576392254,3.858990080546011,30.667044894892324,15.589188760474237,26.148999176070184
580.0,-3.8966574310170605,6.361082787474845,1.411628788660225,-36.55644490093446,0.5030399710026656,17.349902417219745
600.0,2.425604212730359,12.570978397413047,-4.4567971440684815,32.902269814621,-27.765892284631462,-26.260603518409695
620.0,-1.1319146101893451,3.898231664728045,2.377431526363886,-31.05559106790813,22.10895512905185,-18.917600976251997
640.0,0.9104193018105406,14.944753161202904,-0.5425453022902011,23.79890658108817,-14.925791537726221,21.074809212239753
660.0,-1.4243274979899825,10.09771349058571,1.365653002936326,-10.000567592359673,2.5263903306379674,21.621065172353635
680.0,1.7875495298649215,7.884945929210456,0.9713212732454006,0.13356957323234653,18.09840277378089,-15.013073737888782
700.0,-0.7398231512644551,9.64181778310808,-5.192482906082221,13.6937345517006,-25.31589164531673,-25.809367397174206
720.0,-0.8828519466872765,7.392902630404345,3.3855207069008766,-25.783876246745713,20.603663862104874,15.205301773977105
740.0,3.658292472595509,16.190626015576456,1.6741455361975532,32.78455399493348,-4.128983329898434,28.168822643691858
760.0,-6.21642852579456,4.037254300849487,-2.868878770719417,-36.633395408868175,-15.350702877939147,-13.853863924885244
780.0,7.316070065095918,12.256376246116966,1.5994098037483475,32.893673124847645,25.108062006290794,-29.580528347324083
800.0,-5.830324772487518,6.517622112623218,-2.5299178598315053,-28.243266813525533,-20.296768802503717,8.664878513095053
820.0,2.8373531515874943,14.97861712500262,2.580046250294962,17.00908312514013,5.337830022504854,28.203180463636507
840.0,1.1415096858718552,9.156089889628365,1.966026393737797,-1.177123119913484,12.950032765273622,-0.01762120865185013
860.0,-4.3991891742305995,6.2570796717585795,-5.421253619908034,-4.119229782273151,-25.202677515324382,-30.1536053362422
880.0,5.212984538029015,12.240606915731965,3.1621157746698296,23.73231623614318,23.36814815650291,0.4536346052134377
900.0,-4.82150592699055,8.154994266701724,0.9365392943959825,-30.925975694412944,-8.024701476806685,29.23498438323722
920.0,3.215291193793955,15.423116249187292,-1.21715080143077,36.065622852686204,-11.39485517967001,2.5783791205492497
940.0,-1.6978887254932857,2.321151666602789,1.4836193626246257,-34.83776392480656,24.284196644604616,-27.570582043535648
960.0,1.0355665248029657,13.134726971348133,-4.211088559690796,26.913768876612178,-22.901366343113104,-9.197217990026353
980.0,-1.5272199413751317,9.111832987484286,3.230539083901079,-18.596884953353346,6.1598538303631685,24.798266851597432
1000.0,2.102242252177423,12.259152694178379,2.2658702411532823,9.941092974789466,9.003999120992278,12.333464707436567
1020.0,-2.2919819927763996,7.824439414874839,-4.63656237573304,4.0224360736015425,-19.853968083024945,-26.407393856371474
1040.0,0.6551519314521672,6.021600832408298,2.251773704120171,-14.967391274084921,23.526493875114312,-20.40379443830328
1060.0,1.9677458374226748,15.724508455167415,0.09136309113344682,28.944350390336563,-12.583329464844164,24.44485535884169
1080.0,-5.181051968802009,6.727622561061555,0.4218211132945277,-35.06540676725553,-7.325113858810609,21.174436648057426
1100.0,7.096926176603341,13.2764162026266,1.7355914378003479,36.077895790265366,21.29481901975441,-23.986767652629723
1120.0,-6.919897455606934,3.3673566898670915,-4.958482182911307,-32.0038414217283,-25.274319480546087,-23.93737802038953
1140.0,4.939953928184191,15.074236226736891,2.821207600919325,24.09279871713777,14.48401967889938,18.353695834034685
1160.0,-1.6044035254884728,9.537644370099445,2.5594768028431383,-17.58129545087962,3.580014160310804,29.330565643915463
1180.0,-2.7059832174936105,9.007457869421563,-3.865822032195104,2.3651553059854225,-22.638794256078526,-11.378251164663922
1200.0,4.272490228231863,9.109927456635281,1.6439171491748565,10.51109535780634,23.580250616670295,-29.699048756936495
1220.0,-4.706368024680946,7.182548283909252,-1.4373485442402916,-20.401298053534966,-14.864557214228618,9.834306605278249
1240.0,3.5538188328075346,16.70837190875175,1.444450603862301,25.424825802533043,-3.3130293154489774,30.55262658273033
1260.0,-2.002098707732119,4.58970950996594,2.172291356743742,-38.42366306779195,20.579654975218116,-6.9466614447012525
1280.0,1.0987329253750788,12.365723759404187,-5.412775134633968,35.377598225801904,-23.775982429708865,-30.84193852370356
1300.0,-1.8599560710248806,5.574348902091453,2.277336454188057,-30.03616699079389,15.131847389555835,4.51438909173188
1320.0,2.4278552383651584,15.215426566492,1.951811287865555,16.283170055600518,-2.3985239432476604,30.212809388121624
1340.0,-2.912947137526741,9.199780742185244,-2.464199087699596,-7.858480597838627,-15.166755874780248,4.377213593103551
1360.0,2.4540525782941707,6.723447381434644,1.7661036628754136,-3.3498233019064427,21.45740666727861,-32.60108393258647
1380.0,-0.08011617430594573,11.893530615714011,-3.27680344484235,14.691990478028199,-20.68855061027488,-7.239642013792204
1400.0,-3.0220617423763363,8.113447132501701,2.0530955986342407,-25.692005084454227,1.577934395627943,29.575816878221115
1420.0,6.096084461285568,15.145767164159215,3.1701262628264204,35.63384744089504,13.999369178378483,9.523701006713663
1440.0,-7.388083832396384,2.5468086087014465,-5.210598242572838,-38.411775599879384,-25.719252582746616,-26.93890653609428
1460.0,6.580789222935774,13.29667644664082,1.9753799023638392,30.14384918530022,15.903028616476062,-17.153376436580412
1480.0,-3.8205347959649054,8.404592501109574,1.001247613535894,-24.350340656853362,-6.63931171141282,25.33590569550946
1500.0,0.2981391736601465,13.663364732635513,-0.6593027814002949,10.658715135665476,-12.536083743220674,21.724436069096065
1520.0,2.7924332627639115,8.241376784535746,1.9344884294405948,-0.1948327823706142,22.741458680050037,-23.075091600348635
1540.0,-3.761091329789954,6.044021004829513,-4.323379351190042,-8.323820910594712,-21.683572700389018,-22.65257985116235
1560.0,3.433396052967526,14.413989561438209,1.8392061940798206,25.358482490256563,8.470899302763417,20.070760716368138
1580.0,-2.3476044236174625,7.3237101706264776,3.609051740525497,-29.65746939357635,10.893291551675818,24.45034943732351
1600.0,1.3524041317914466,13.412939882816731,-4.501118020799121,34.01938472686331,-19.30207010075489,-14.525980550340355
1620.0,-1.6919047158379714,2.563800005250924,1.5737340303425813,-35.76440726749828,23.93350749303715,-30.200963883771816
1640.0,2.49060627293471,14.803166188400118,-0.4890800818651609,26.70320712359767,-7.796100053610516,10.250290053683038
1660.0,-3.668831731541023,9.712212514320182,0.6243309955510387,-16.084551399473057,-7.492694028556111,28.805411015488943
1680.0,3.490824850532946,10.29960283373996,2.8477795001618254,6.043059186760013,24.361020163288355,-6.186830303581804
1700.0,-2.3552164681074297,8.624680740977713,-5.313046023964453,1.7147093715601769,-25.37557967927263,-28.910880526812775
1720.0,-1.115943693909276,7.140281143648507,1.63946209460326,-16.633140780893434,11.836636979945167,4.6136103911014
1740.0,4.317741107731209,15.935975514629206,2.982875279820096,28.097422569825536,6.85650821787956,31.551407224597835
1760.0,-7.187818560762247,5.187370247367767,-2.848351222182984,-33.47667756339068,-22.428313583602765,3.137741505416668
1780.0,7.344390713199592,12.248550701584033,1.4093232808642535,33.87382720982849,24.0068055429005,-33.8348735629322
1800.0,-6.066540790982815,4.559027243967951,-2.1389565749426387,-32.77477400530139,-12.013797537163965,-9.014072546459307
1820.0,2.3983715888846504,15.681461273334465,1.2215454193110655,21.12734895417816,-4.811080818394016,27.242816140376753
1840.0,0.787222252856741,8.822644306385103,3.886233350714778,-12.352434372325476,20.776644608814074,14.348550848174316
1860.0,-2.607387493926026,7.622753607628029,-5.407848712814482,3.6926283875570154,-27.597722355610802,-23.254580711769616
1880.0,3.5454544886285273,9.924381192491106,1.3085391027758773,14.175405269097075,16.162146839907585,-15.355035227500716
1900.0,-2.744343732335322,8.361151463324452,2.2384925831396125,-22.10864634104943,3.3550047865100385,22.916398328729404
1920.0,1.7036041997592437,15.810490770722938,-1.333569170029699,30.565763466424634,-19.6496692491446,19.691421988165857
1940.0,-1.722447811344431,2.9857133384451604,2.065755997094615,-37.0099449261179,23.899792322907008,-25.322193568958273
1960.0,2.0279196509165027,12.71562990721849,-3.760787390323303,32.46147725943162,-17.62070143490301,-22.030335723995908
1980.0,-3.6934466715281027,7.31937076725834,1.4447491681480962,-28.492260443614366,-2.324957555206004,18.605484245291855
2000.0,4.636633549238261,14.74856512237307,4.10967679392426,17.555067062846042,19.269305841268025,24.96247705474705
2020.0,-3.752397317852093,7.28761014411115,-4.234312250058497,-6.074861138107535,-25.739960931409556,-17.96783464077286
2040.0,1.2439411991575686,6.446847117035159,0.5985751454430972,-7.84729176367017,16.57853401870655,-30.498974363485452
2060.0,2.2534450585982193,13.163941901957465,0.48232632366231876,19.052680654007187,-0.41790200997317517,8.701977559141321
2080.0,-5.46128507950326,8.250647325021161,-0.03500712708066894,-26.602781467214978,-18.92871001954685,31.304989838323564
2100.0,7.416865119985346,13.863852049544171,2.794990868747031,29.738026324557335,24.254576365881327,-4.680543477406877
2120.0,-6.856287577613493,2.492230734007953,-4.751064591744997,-32.34075412676745,-19.329694567607618,-25.032691600064354
2140.0,4.768116640963169,14.633401320241214,0.8341147948149437,31.761102015538928,1.4111485575180738,9.809008793868117
2160.0,-1.360404254571145,8.82804569819834,4.389152262469661,-22.84082621160879,14.440958461075713,33.88975885179115
2180.0,-1.3303996523867176,11.672684496940695,-3.7379115161237673,12.481257853759104,-25.481458010399,0.8158231806223528
2200.0,2.9336775103231614,7.399719747099959,1.0655498906892817,-1.25388129951108,25.375595489592442,-27.91754462628321
2220.0,-2.2958429738874226,7.556780789313374,-1.084525692457181,-11.673126080274677,-3.3470878881938826,-4.642771951496279
2240.0,1.7800559283302577,15.528149615818721,0.2694593147358397,23.190966048002053,-13.768675054320143,27.19423813118143
2260.0,-1.1961852577840248,5.814407254204944,4.2040351209839555,-29.191083094912333,29.850512647739034,9.213905839490593
2280.0,1.8695441937594355,12.378492778968734,-5.1712166425789885,35.64175661062248,-19.102416437601153,-26.809243285264177
2300.0,-3.1137917566058584,3.9618866826328762,-0.07706411866228807,-35.1179944566708,9.607215998327625,-14.422820505325646
2320.0,4.567103076536931,16.001509652303643,3.111336396149149,29.320652696137532,14.18826726101575,27.684273181174767
2340.0,-5.339910601930941,8.594704193181792,-2.204906490718363,-19.532136515855786,-21.637051881027464,15.220101360576129
2360.0,3.543084164979359,8.542272142713687,1.946272385853207,4.900498893192636,22.191267733932722,-22.855416024901324
2380.0,-0.22102865967363491,9.325885145653015,-2.7223753428087822,9.005809877854293,-12.225685120778039,-19.32428052069449
2400.0,-3.445067537496325,8.741159010816823,0.18063252694344223,-21.512780370990445,-8.046240867129816,19.36066225461023
2420.0,6.280981203291982,16.034736471974522,5.081806313272846,31.038226370923773,16.653021953568896,24.009046448353583
2440.0,-7.20257534400481,3.5704236983461195,-4.769309533590022,-36.7601921445287,-23.8108834994586,-20.091110894959577
2460.0,6.0982108725167645,12.577677705992802,0.31494390142551454,36.76655159378855,12.335194107742396,-26.526246772763308
2480.0,-3.2421263647610634,6.381939596787497,1.6880570601702278,-29.806307899215668,6.850570503177521,14.337661795710115
2500.0,0.536302844141324,15.180525563398056,-1.311927362769224,22.7677970950597,-20.659292403341233,25.617398269342228
2520.0,1.9142211866184824,7.582853954562477,2.495711656116338,-10.890993989223807,22.831923514158255,-11.408445426148921
2540.0,-2.2152696786025596,7.064255217911649,-3.666295120135183,-2.0697581004068177,-9.914336492830408,-27.26125622338928
2560.0,1.4378992848962715,12.1219876187929,-0.1947257539060907,15.560735457418112,-4.267168435582527,2.2191602151235226
2580.0,-1.0890138655825683,8.682348054079474,4.425905132023869,-23.7829873150573,22.91133096371708,32.37419463707748
2600.0,0.6748816368277878,14.056288860894501,-3.4688550482399196,30.394796882740657,-26.35842404029854,-0.8089233796791726
2620.0,-2.815453301387704,2.41240743195848,0.4415634692631497,-32.99784067617325,23.434722179640335,-30.84857620048264
2640.0,4.506936652045187,14.280090084327883,-0.2721123507208425,35.47413065279832,-2.765142255568203,-8.181455410658153
2660.0,-5.640893130148535,8.838078014672785,-0.6315490929191021,-27.1648932738259,-17.378640232222953,31.364923241806736
2680.0,5.0327840253409475,13.144558172653783,4.69822262096041,17.731065495680152,27.75029618726159,11.428049903723014
2700.0,-2.9925422433714157,7.046302741275231,-4.223868175637614,-4.491227881936011,-17.68801258877238,-31.21623321701597
2720.0,-1.1450801752030035,7.8032795544604445,-0.34905136916052043,-9.57842951589102,2.515391108591997,-10.773112928285446
2740.0,4.746640907510531,14.974919981993065,4.4499626404870884,20.003242302073936,13.448144624811537,26.361363106850668
2760.0,-6.76763304520636,6.981161039552828,-2.6945169367227395,-30.815047959322943,-23.830331894988678,11.713734350590787
2780.0,6.898241026082149,12.443836053952161,0.9243081454922928,32.82926414993795,17.163769266518553,-26.61396201815049
2800.0,-4.91198317309699,3.376908751657585,-1.6362312739716307,-35.28706510618452,-4.303412211706099,-21.202779330378412
2820.0,2.340451109124346,15.597185109909217,-0.221665430131196,29.767547611164215,-16.036698238656818,21.48983715383341
2840.0,0.4057978983291277,8.713846598759222,4.840453571290803,-19.800593508293034,26.494204627543045,22.628261512579392
2860.0,-1.1092578578329808,9.89739392910906,-4.42008651600391,9.65134625936041,-21.31490543989568,-17.938675271268075
2880.0,1.2499603165234836,8.406258449796598,-0.7428858900083667,2.0680367578459524,6.922238999108685,-23.465761380209774
2900.0,-0.3591092209970439,8.623358661231729,2.8621249441102385,-16.107926041008156,11.623159363605383,6.909665852311554
2920.0,0.07927280891942756,15.711712971344825,-1.8240346223523582,29.263013004249796,-20.705870306170816,26.748904094875726
2940.0,-1.5968011747884812,4.430530075896109,2.5087302481033045,-30.345755299310447,22.595443156328773,-10.293499533200508
2960.0,3.4063343237950714,12.477323957007384,-3.1758986958469277,33.52535848998908,-6.393614914291107,-28.328543398721308
2980.0,-5.742112282046124,5.766612838405713,-0.9996423517297653,-31.55664086192139,-10.72125484727686,6.616419123471314
3000.0,6.115197491289969,15.657313329464662,5.16109120950108,29.57166378606478,20.810030242353356,32.333420738352046
3020.0,-4.6506708520748115,7.211907332866411,-3.346609811033414,-14.729455268768326,-23.294745097969273,0.2189535967275409
3040.0,1.7978369210800638,7.830130871901727,-0.10839472076796586,3.8494142333583965,12.172036030484229,-28.52991452059085
3060.0,2.31016378714625,10.814844242756292,0.7107378960961882,5.499881906536549,9.950697914833196,-1.8634261902272349
3080.0,-5.412865375793399,9.07975221221841,-1.1316881475783094,-20.61288456821182,-21.59003917809362,30.07964803455712
3100.0,6.73636175886652,14.834981960547985,3.604510854681793,29.202888041206958,22.56392874835632,6.055901943493115
3120.0,-5.92509236993515,2.3742142231409504,-3.553871835145766,-35.253290966302885,-9.823613245629137,-24.465519434685127
3140.0,3.5778372806432817,14.1378667899748,-1.646828426442286,33.07718869223833,-8.27030748805085,-11.532076687982379
3160.0,-0.8897102711775158,7.6815036762123245,4.3603457466533335,-31.86244138394008,20.652460370752642,26.124639083754836
3180.0,-0.31541110931271754,14.17377126112385,-2.1862566370326393,18.55729065442322,-24.01931989100147,14.92692682881066
3200.0,0.5714348113386023,6.315788399325248,0.6054777177458075,-9.031235494523852,16.578337954046443,-23.974523668299383
3220.0,-0.0605113064389622,7.56628975319516,-0.5445912928775123,-8.486449038881185,4.735089526461522,-15.249488775801021
3240.0,-0.17624764984685104,13.869951686708276,-1.41920704849579,13.575336397378752,-17.754889048907508,26.04849048368688
3260.0,-0.6158274177065467,7.9518645541981385,4.638551368406341,-24.354648253048882,20.38697078557079,24.62104254980245
3280.0,2.3707926209113963,13.093759706982087,-3.8123261458591595,32.44333079997988,-18.461166448467527,-19.141555383012154
3300.0,-4.457510385047315,2.9495681595545338,-1.963924924785474,-34.702467810292134,-0.7933900532715656,-26.06918610515698
3320.0,6.380601821192231,15.745721003558687,3.5445596113766022,29.241878421384556,19.6511251345616,14.595350702254922
3340.0,-6.188270899267513,8.255001430773275,-1.661629857307799,-25.26028954571003,-25.914278293969076,27.80604934466447
3360.0,4.125711468213726,10.737231986030109,1.868094563649045,16.082194609073827,17.71921849919188,-12.797301135874774
3380.0,-0.7343649728830222,6.815022183477947,-1.934719444400069,-4.165382634367729,-3.963837619165143,-31.111852156401042
3400.0,-3.2776849097971636,8.760539382421253,-1.807588666945488,-10.060214716491572,-19.563189308430072,7.351400397065054
3420.0,5.983902692122686,15.522351302405927,5.419237316020368,23.82042926842049,24.933896742879856,28.970043325700892
3440.0,-6.767990381946829,4.526930388070583,-3.0914229282436567,-28.974247948962756,-21.37669136642282,-3.8743222969174163
3460.0,5.059524847453789,12.446900978720752,-1.734948242591401,30.937065688674075,6.2137260999076425,-32.46166269107915
3480.0,-2.511756350386216,4.908487131354199,1.8719086412082195,-36.56919836213697,14.626940808421974,-0.20468977527356225
3500.0,0.6955771487402785,16.595777395905305,-0.9708195848909826,32.41788109224996,-26.997369150515418,31.218697686427838
3520.0,0.018207050204861457,7.674085014969456,2.998905871774203,-22.638374549876012,22.39840355077318,4.7201829103762725
3540.0,0.28860368631885847,8.430245807357231,-2.836069751927521,7.763437423863225,-9.982198352726126,-32.266748264769
3560.0,-0.8977657287370807,9.857462027341361,-2.529391306454529,1.7861544312673132,-11.554688571437078,-11.45226743205191
3580.0,0.4550466707383841,9.954439705677807,5.17349748311793,-16.380383441118795,24.94529956613102,28.907821665975586
3600.0,0.5054058573298434,14.816276331143735,-2.068053561455705,26.083334486220004,-21.870559467645997,13.326933327575532
3620.0,-3.474643193524579,2.4903962832826823,-0.4413053960672676,-35.882692112998654,11.142989868160182,-26.678815656831432
3640.0,5.5062868517942425,13.319124314440785,0.46431092966223486,34.436203744535206,11.699916851287686,-16.32446252386082
3660.0,-6.899770508508054,7.338841794749788,-1.934417026462232,-31.36567365225463,-25.67504170814872,24.664146942329893
3680.0,5.9905445225021525,14.860043280485955,4.487148396610553,27.26420394930618,25.189810786999598,23.880637862408893
3700.0,-3.1251577358043083,6.238321573035611,-3.0856281115890236,-17.187570710363033,-13.85229723498951,-19.75610910892859
3720.0,-0.8676600974298215,8.052590307529629,-2.9921872771846947,1.1311561447965914,-7.22121460875895,-28.86080602705881
3740.0,4.235951091891257,13.18826672273499,4.517902673753246,13.591474836683101,19.30410683812606,16.853807952275137
3760.0,-5.73815825194535,8.69002776650909,-1.7620985854622975,-21.811729974655346,-23.673944749406534,26.43039721476884
3780.0,5.523942757897801,13.393161545050816,0.7935091476901446,29.94145947467226,10.654431327870618,-13.287594904644852
3800.0,-3.7178825680629326,2.6980784115292744,-1.0403267157515914,-37.182681060231396,8.47287303692467,-28.945681705728347
3820.0,1.7439658002655332,15.368933945184386,-2.284224021534579,32.38368319181928,-23.14201529382156,7.873463162638585
3840.0,-0.149681397817524,7.967152278050336,5.3427419763695285,-24.67975372974878,26.938809529950568,28.58156357413111
3860.0,0.8530233030750108,12.158078835905242,-2.2642389958047726,21.342189719868742,-12.99280344757181,-4.719473716505715
3880.0,-1.520378160210075,6.33769788465914,-2.1784041564351293,-4.439719044126907,-3.0622095256944157,-31.068633177970007
3900.0,1.5107925319361324,9.03616050515583,2.7505443223839237,-5.779053384299809,17.311857058894137,-1.197048424577274
3920.0,-0.6153176249570838,14.617222417109922,-1.935630820733165,16.957984084520504,-25.98669070290745,28.51447106871781
3940.0,-1.884542264723702,6.136089776337296,2.8560076236717906,-30.020709145000065,15.914955615395234,5.3646997257206195
3960.0,4.817060100931984,11.92777577749209,-1.8572829921915959,39.15855486402078,1.8609444546506255,-30.73557787874577
3980.0,-6.632908296342044,4.171957393067139,-3.4668275718551467,-33.41656483359966,-21.57902360570473,-7.707145539345557
4000.0,6.8566520561797955,16.54791486143513,5.422592394867743,31.900671877224323,25.037206523963114,31.21563730029726
4020.0,-5.187972862307306,7.623662191843288,-1.828934385778098,-21.456838827764486,-18.339977556041312,12.732844573511368
4040.0,2.093477957668346,9.551237829058792,-1.2244563926915366,14.523124627402877,2.2434000677022046,-26.53880213673342
4060.0,1.9788572724464293,8.502220623941184,1.2808828820291098,0.12327551560596764,22.36642577044959,-19.462394265129486
4080.0,-4.7343270217311755,9.788426591153295,-1.8914722328473068,-11.549802436895957,-26.24076185801379,26.61433763988866
4100.0,5.598470716375617,14.89243040556102,3.8060429987836213,23.81994780199901,23.294380821644648,18.758466721242915
4120.0,-4.13804775071704,3.3050274052673876,-2.1276635695671904,-33.04022632564094,-2.8576741628840745,-20.264656909828442
4140.0,2.5811611658709075,13.016368969724518,-3.6438615927689297,35.413181695016746,-12.351886245032716,-23.87887379055646
4160.0,-1.5126534040362136,6.668004409526591,4.492132221096563,-37.43495876649051,25.960045016627188,17.688024423025112
4180.0,1.2619993193475414,16.018539584370792,-1.1995926344657415,22.604428301584676,-22.986413867789715,27.362092791486795
4200.0,-1.3740497256884046,6.446902913440626,0.09380201999914706,-22.132729828835515,8.224331181450658,-16.355547014190787
4220.0,2.4119242026151495,8.447129574151829,0.046259340582847086,3.2196114630443295,11.569203886267445,-25.27039547275832
4240.0,-1.6487418580540882,11.84353385936967,-2.9269016536803334,7.831789467126722,-25.673836797909754,12.419801755825812
4260.0,0.1599697966510644,9.495170016589332,4.919931049874577,-16.84736515384411,22.915626026246183,27.9080731470827
4280.0,2.5656375924723704,13.410157421600207,-1.819475347074922,28.77143348856794,-7.3703425736879105,-10.715404880035237
4300.0,-6.005522536700549,2.493559124561527,-3.3189968454268577,-35.251735280582004,-11.14319604378301,-30.681242315278755
4320.0,7.344529925190437,14.701251683645214,3.346012030633998,34.92169602145152,24.645499819303623,-2.973299073617107
4340.0,-7.010493815616811,7.815394754493281,-1.3128837185427509,-34.81542198899138,-25.735311639816462,29.134971244013254
4360.0,4.298207194210253,12.80532145250381,1.695575204886919,23.689312524508463,10.410929404884177,3.3862329687991277
4380.0,-0.6549605100240316,5.698986127903005,-0.658560368058762,-9.959653156634888,7.6093609675754665,-29.766739421975142
4400.0,-3.160916831965703,8.889417496781485,-3.2784018810748927,-1.9461869222155048,-27.26484697827814,-6.9495495714647895
4420.0,4.58175252776234,14.275443412809631,5.326957892587639,14.51374559285036,25.29695546676029,28.712741131275
4440.0,-4.8730257903260314,6.998615878699516,-1.1485104649200433,-24.15472700675459,-13.845996054000684,9.6849262139193
4460.0,3.335643513989582,12.086178443255719,-2.9067793956491053,29.660301335023643,-6.513226833344092,-23.56497770408434
4480.0,-1.6639349490887363,3.5735127160486804,2.104951720328962,-33.93481738787861,22.207398968195783,-15.378276382829977
4500.0,1.6926594272618456,16.653408530415273,-1.5875328375276652,32.95506138754659,-25.4879833377266,23.548848475027334
4520.0,-1.7061080306970788,7.569006741045814,3.470682092284961,-29.19371704025776,13.518294305903177,17.699780580265383
4540.0,2.641157737898507,10.474525869711277,-1.225683357766407,17.587738219584264,7.181996783238871,-22.618763762153964
4560.0,-2.693860408655403,7.717040619587074,-4.2744791619985,-8.490638430771426,-16.9274642787973,-20.16304279465045
4580.0,1.953135107030626,9.992269160635113,4.658502092143035,-7.276953896035494,21.600747819561512,16.92932130957879
4600.0,0.5816590289458584,14.66769393999114,-0.5062670772139866,21.453179999117097,-14.45969590702582,24.11758662217471
4620.0,-4.083234255994047,3.839266977337508,-0.9723610562785819,-29.39046856969944,0.9720495111566461,-13.300883224229166
4640.0,6.505588209193813,12.60496394412527,0.8996078650522776,32.91601037367752,19.811497326722854,-22.331752703419745
4660.0,-7.340816659643057,5.587262672269859,-2.9376035498340745,-35.1541017722387,-26.94844386524016,14.158244413934845
4680.0,6.159509227235899,16.66054905780104,4.341405401120762,30.284195696992246,15.014210843577732,30.123297362124106
4700.0,-2.7737250677277028,6.311364914685333,-0.7532371766315411,-23.888990373202144,-2.724907131769763,-9.21251557338121
4720.0,-0.6328819567841949,9.035610128333799,-4.578884268475686,13.766048951122041,-15.041787680860347,-29.27622352159816
4740.0,3.5659488555931076,10.05916159812268,3.6212874805172124,2.024053267609441,26.666496032798552,2.27589840024092
4760.0,-4.221570449203448,9.910149760186608,-0.7509518274174414,-14.218239203132919,-17.50441615340206,27.297988356410357
4780.0,3.7857132046343236,13.485579101778738,0.09108316124116661,22.110924266432633,1.6362992432164027,-0.5487226292383033
4800.0,-2.4701268750153056,2.5719843101689963,-0.10054150018882532,-34.48935665747974,17.84224127918962,-30.857256401669755
4820.0,1.3882426023902898,14.125971526777736,-3.7337279795055864,31.171726731071605,-24.170384670262123,-1.8530730514820606
4840.0,-1.6692032571267077,7.686697109731496,4.878962553651049,-34.01997605533336,20.115593524461953,28.405661656626204
4860.0,2.8002125324154368,14.207758662215449,0.18096283052591094,25.402543494772363,-5.426629803928423,9.171179276874875
4880.0,-3.707349793439042,4.9751126132461145,-3.4747261858951295,-14.779634375311957,-13.772087683573604,-25.801821618566603
4900.0,3.894752406284891,9.328813234498412,2.486148920264494,2.9265457834428767,25.810933396784325,-9.334704485710256
4920.0,-1.3579612766901532,13.521172346174648,-1.6679016211918845,10.474015537919602,-24.36235231128051,25.558058057601684
4940.0,-1.8976353694508081,7.984563339069389,2.0777291157124345,-20.328443414930792,4.93310117847108,16.914221738628864
4960.0,5.478924138800201,12.158369527899037,0.060549453443937584,30.612640500130688,9.500492081426756,-26.767598535913343
4980.0,-7.19417601125276,3.220317353780933,-4.31557124644527,-32.6354955089152,-24.56802933593868,-19.511475968898065
5000.0,7.325698736042565,16.100016026857865,4.5288764958323515,38.66499121344358,25.17962601778834,23.42432419438687
5020.0,-4.8348747113920725,7.577016814736875,0.03678180130965385,-28.964217731984114,-9.599626828401933,22.91664221537195
5040.0,2.02846299700375,11.200971991912342,-2.2772609911400807,21.86067575259448,-6.907946852319083,-17.467731729166815
5060.0,1.5375103251315307,6.3149703146356,1.654657246582365,-7.179537061930032,22.140633414351576,-24.469363194476326
5080.0,-3.4406106594580628,10.6897410326598,-2.432290005074829,-4.4730113946041055,-22.65162235154676,9.794696859231909
5100.0,3.5387172703710372,14.353185200144528,3.899618436120312,13.850143189164436,11.568787141190633,25.263254432845414
5120.0,-2.7387631008268114,5.285521759108386,0.3515751967761069,-26.749662033953626,5.1766451861104805,-10.05744781163075
5140.0,1.5450358009630598,11.828378866809414,-4.974015951577625,33.53950173659527,-19.55197801850659,-29.94931461751105
5160.0,-1.3715994618821037,5.120171607000851,3.782149665197351,-35.03947560082658,26.669498944307453,5.213087599766912
5180.0,2.2114787431155873,16.85268015040944,-0.10759762957032735,31.182561385633665,-15.482144160084578,30.862274624032157
5200.0,-3.595142027359425,6.0182427555192755,-0.35543543303276537,-26.114923214956946,-0.9630517056187688,-2.0082706408710207
5220.0,4.461947422473655,9.22368724251494,0.906753150354999,15.694610891542686,17.027910254571875,-31.796580408596796
5240.0,-2.9930368032440833,8.851648110898168,-3.5302836879368646,-0.9242763660942148,-20.970686085162935,-2.6456043788978514
5260.0,0.6268063799499312,10.898757715899135,4.105551091306376,-10.637560559802333,20.463048961280442,30.119786440680514
5280.0,3.1523488772129253,13.493056843078076,0.654264365229041,22.8180710312697,1.2165692584453796,10.329726007435257
5300.0,-5.956936794518462,2.983879219840478,-4.5797734715791005,-31.08800747832408,-15.27517579230547,-26.02192484208479
5320.0,7.563540581958893,13.957205328340821,2.4730291083955604,33.76905057150978,27.81179533773748,-11.203692697283161
5340.0,-6.258698600672214,7.3584405243178646,-0.5769635600192656,-32.3332222067417,-20.819361550374136,29.06131355655448
5360.0,3.8350305061357197,15.423279947362508,1.0885562988009065,29.61374846596401,-2.20999783089467,18.429988010614803
5380.0,-0.7240528148116491,4.549362485755951,0.4157782702127987,-16.525751685705284,16.591336532809358,-21.223409273816113
5400.0,-1.9622214333622798,8.980958656460844,-4.71407603301321,10.193697439543593,-26.31389532928979,-23.216691475367075
5420.0,2.3691740895591202,12.100922800332421,4.050143951538493,7.40927992250308,19.701745520082692,24.545386345253156
5440.0,-2.304816641727437,9.213705691392251,0.9359431607853315,-20.87252640989839,-0.012172056131649622,20.706296666486484
5460.0,1.2438848885641314,12.26048218850147,-3.230462230520625,24.88585378469952,-14.25950474976953,-20.094821157317625
5480.0,-1.3177484049551815,3.1258016489639275,2.0885033920140557,-33.43190854153237,22.6967669361801,-23.34763658700248
5500.0,1.9746557726010483,16.0747889381602,-1.930980590058648,32.86138179001559,-17.33681181911596,14.324290442546998
5520.0,-3.416331286216119,7.589196762504595,2.687678253189066,-31.577385602030677,4.619239663470302,27.835216794555265
5540.0,4.465697776216723,12.422877922430425,1.1837240568096339,24.811834358622484,12.601774818707884,-13.291339785577074
5560.0,-4.606733153168843,5.6639514927575645,-5.131123055228156,-14.662129979279294,-22.64159445580614,-30.02157435035036
5580.0,2.734899413312892,10.496343540781956,3.4542838888285097,0.4082000616099223,21.7302027464736,6.944118310839008
5600.0,0.6772269460507455,13.949974756890137,0.7319512123208918,10.269265263123359,-5.237025923552151,32.617861551098294
5620.0,-4.144921247234684,6.899400391216557,-1.7438206241436365,-21.53561365684157,-7.868973445438422,-1.4805254016528544
5640.0,6.533594862727032,11.69665575993062,1.5677621918504525,34.276990689290166,22.271681224701915,-29.521151404895097
5660.0,-7.131550081979772,4.294109094150167,-3.565685715058233,-36.70358086324609,-21.407847218261196,-3.2364009171070673
5680.0,5.598102608950511,17.17262231809658,3.2229157107929343,32.27098536955249,9.349912725574567,29.432112462494157
5700.0,-2.8384771406090135,6.101777485312574,1.4062276063931167,-30.23360951527271,9.662193233102611,4.417164028072466
5720.0,-0.5205255958936572,10.077667591300616,-4.814973503518032,18.689070376243173,-23.97723188221165,-29.73922600061798
5740.0,1.7743399708654788,7.64869544957265,2.202863446392615,-7.270226802633455,20.80746988186096,-11.258693555545378
5760.0,-2.408769477120198,11.278649751253129,0.08301191481988181,-3.0904225309423214,-18.045019379879008,25.308261639492834
5780.0,2.0150271761859724,13.553241784990483,0.3528199973853554,14.914441125906329,-5.234630432052298,14.380705815321988
5800.0,-0.9185676514349793,3.924435804376911,1.4291351556326113,-29.98400343076289,22.511971046382868,-23.290094223398473
5820.0,1.3627577358319498,13.186341451833018,-4.622594704974248,37.21849314129553,-21.54871506170383,-22.15337781037518
5840.0,-2.2948813625584097,6.914631794310859,3.7357006318664823,-35.9218095594922,13.202334508842515,21.420606080502328
5860.0,4.155946192823735,15.924629902208679,1.7711889421042475,33.575890915620846,3.0922628029170265,21.418371619865724
5880.0,-5.225381571443863,4.8674540919325695,-3.9840218782007373,-23.714811186123086,-20.570705582967193,-19.47166034031519
5900.0,4.891920981263534,9.70038322517308,2.428290615190996,13.197809206635554,25.49450230896822,-21.5606096257196
5920.0,-2.239427815664359,10.575757720070209,-1.2156189827307204,-1.424527807948926,-14.188582625980557,18.10368488504796
5940.0,-2.1444711848580953,10.249780941193658,1.3333702256851698,-11.667526101756266,1.4532601250670474,28.050433832698666
5960.0,4.868733465586572,11.900826955715281,1.9690184618649686,23.225167686783987,18.911183342608908,-12.14330815926346
5980.0,-6.913730721365567,3.2074254636126405,-5.1590882640278055,-32.88393041359752,-25.331953952791103,-27.025364410618295
6000.0,6.786588378352621,15.67968825327521,3.182793670291579,39.48002694068286,19.636140598047987,6.747233423352422
6020.0,-3.7319411017502895,7.429331844572088,2.1315247362021337,-33.96757047141645,-2.336606804227143,27.73896333525473
6040.0,1.3858979885504856,13.390377940463239,-2.4639547006766604,23.873184024870234,-18.299063437370183,-2.4447915854839533
6060.0,0.7903644042686262,4.344433848839473,1.866039412284778,-15.908109670321164,24.31713347527137,-28.89522460786767
6080.0,-1.3785016577678655,10.592653963091573,-2.5760166013429147,9.420482807288387,-19.241688119497184,1.1889893420963786
6100.0,1.2579808595997588,13.021450809375013,2.4731572516591434,10.300326945711967,1.91317348713862,29.409760471938398
6120.0,-0.8211917777145129,7.5088002972295405,2.373752675061017,-16.454407899887656,11.356574227626744,5.269163308380535
6140.0,0.47027974450307586,11.450518517793117,-5.170827946920534,30.490659205330147,-24.641562477677752,-29.186033114120555
6160.0,-1.8878719794802916,3.8418944279197818,1.9021963027237714,-33.12518644722743,20.579793092466815,-7.840398486124627
6180.0,3.5541287986156314,17.295618359332895,0.9354003945791822,35.39625398383769,-4.036156551040262,28.092239341152904
6200.0,-5.386948707720369,6.6240135937305284,-1.015337553516706,-31.41562818567516,-11.420604645907748,10.962543834203906
6220.0,6.063642577920256,11.11487707768818,1.8513858088224167,25.829064824514912,27.32004369734498,-26.731124713981448
6240.0,-4.3314243001418715,6.920344999711935,-4.284585979377568,-8.717479528973131,-22.901465249882946,-18.959516992570293
6260.0,0.830990703485916,11.622636230094887,2.7681767099666907,-3.2366714963804775,8.183953531797352,22.19299529183447
6280.0,2.8137349008114048,13.33012975125843,2.8193225684709837,13.163148194060573,11.809553055909419,22.824773311204357
6300.0,-5.843174635428255,4.587391680862637,-4.7710189826226,-23.91904326737847,-23.445135724516113,-20.421525943720113
6320.0,7.095082455788976,12.54148951519961,1.816031561091538,34.09310803952077,26.911260843475482,-24.435366092824676
6340.0,-5.877231575493528,6.4613244457485415,-0.30521498086636173,-34.0369371684125,-12.669112026643193,15.770150415495278
6360.0,3.154094395591706,16.592398665463833,0.3380227798607439,33.671978723241196,-13.04447897012851,29.483718596638557
6380.0,-0.4012700291261125,4.747688107730011,1.7612843738300936,-24.562026633315757,23.40062231056786,-16.167124487263365
6400.0,-0.7790072041463093,9.995844693961937,-5.467945078208318,20.94644453510803,-22.382160764680027,-25.857208961376582
6420.0,0.673238939459734,9.638991994854207,2.007016501969764,-6.62014439361004,11.735433401628574,7.878494432686224
6440.0,-0.2000232246018362,11.015384642886486,2.6454309227699806,-7.975435634376646,4.491029805372387,29.574938544683985
6460.0,-0.004287136661610291,12.202644285369873,-3.484603810645168,16.622957913612748,-20.84798183939474,-5.199953777761161
6480.0,-1.0872054965005191,2.981871370910691,1.3449254438611387,-31.77555516153699,25.872970995739283,-28.561137095012093
6500.0,2.620217231355315,14.593530156274154,-2.157178126535573,37.08730986929765,-12.410973467173212,3.444680040428814
6520.0,-4.860573714529503,7.615539439978232,1.3166286697884613,-34.50295137920201,-4.348309286734263,29.93718152239708
6540.0,5.857741023141199,14.352886408919472,3.1127932049103273,30.679699335495975,17.802105292994312,3.3027102514478877
6560.0,-5.425738693752243,4.368731530366507,-5.506308044734499,-23.500756437827956,-23.823714004294498,-29.564057379508018
6580.0,3.5641973082520986,10.799954835324895,1.5931881256405616,12.782638549893026,15.096640957439828,-7.693197915578303
6600.0,0.5666970087272285,12.525365601759717,2.1346493749005533,1.9799521566526534,2.5893139644400742,27.27796915690063
6620.0,-3.7919259724772725,8.977393405279066,-2.0265324754734886,-13.463148263990309,-19.249008393633353,12.02769541870992
6640.0,6.346210691825128,11.51247419758345,1.7788125983238565,24.46760898913909,24.511506791817695,-26.105367841393377
6660.0,-6.469190824173756,3.547641256989455,-3.203521448474066,-31.85769805092053,-17.043636519400845,-19.06686963185124
6680.0,4.575493495495605,16.953629711655797,1.4339382193663237,36.330477879873406,0.7195405314046155,26.054768962783886
6700.0,-2.039199811059012,6.899419732904061,3.4506755159061346,-35.93435799466087,18.048909654990336,17.923715693815637
6720.0,0.32817971474478813,11.629235914238489,-4.928445777586555,24.19663917501299,-27.774093413550098,-21.82318464129031
6740.0,0.48957591791131744,5.403522988351928,1.2114082638631203,-14.638276500974449,16.750934184480467,-18.906895115457633
6760.0,0.6734968545193002,11.54795516194894,0.7045338714939539,3.5367529696892226,-1.8944484200521583,16.939942695281
6780.0,-0.6640404909026504,13.212161128718325,-0.051598416919288015,9.752228255018764,-13.452523537873553,24.171133681563752
6800.0,0.3627826355759457,5.556749725582195,2.6638026971023296,-20.823347781018857,25.86706396401497,-15.868175571700032
6820.0,1.0724751522073181,11.508646873737261,-4.953766239093007,29.12038608716513,-16.018703569090476,-27.497053184774444
6840.0,-3.7677003027003297,5.662438923288825,1.7056677636574962,-32.59246890761228,6.838269840050211,8.650253912736641
6860.0,6.029237796729792,17.097328770642413,3.941735034987539,34.16894107761096,14.350791566234102,27.906657767858132
6880.0,-6.782267306711673,4.75576969632359,-3.776702680939928,-30.635699573430088,-24.856088421141106,-4.264089084873748
6900.0,5.492646369044288,10.569694248852343,1.0887764697551268,20.093845892884026,21.416854492121356,-29.65038303260409
6920.0,-2.3083749906971702,8.531988117732244,-0.9898279544309508,-10.346449358396287,-7.573889786452124,2.8794541928679847
6940.0,-1.6355973073393673,11.807392884344647,0.48485586400930425,-3.9674335833211805,-12.147958615935451,27.950667145355442
6960.0,5.034784635835546,12.102221764010533,3.4448846454173965,16.925525372454267,24.980619887966522,2.1025539874946038
6980.0,-6.085237730286651,3.5785857910814514,-5.098723046570094,-27.359468249325676,-22.798928177588106,-28.189929727841957
7000.0,5.545461305638454,14.224340974205754,0.7710072139035024,32.45547669687507,10.232777253716186,-7.571560211452848
7020.0,-3.3772220396068784,7.087636679200255,3.269072893912874,-35.227377882766724,7.534587006090719,24.608476578829883
7040.0,1.3076858982473032,15.46768400730381,-2.5185389069023487,33.03417385605342,-27.226922800211,11.265948126569276
7060.0,-0.3097268278021854,3.888832218681475,1.2621084697031382,-25.451456010536116,24.530084478409446,-27.48049631141817
7080.0,0.5892758954568409,10.98255923756634,-2.7689698492412274,17.01153825652114,-13.484749232871707,-16.6875401790205
7100.0,-0.9473411553645299,11.71040792312029,0.7595673647572749,-6.968309347555646,-6.044814053531937,23.334606111038052
7120.0,1.142416520180964,9.898841584026293,4.249737664376711,-5.183947631133448,20.563724094252976,18.909828634939736
7140.0,-0.09838837557178748,10.801776109214632,-4.894561829515852,23.632150024900728,-21.0902719819426,-23.385768388037413
7160.0,-2.1845287648330123,3.4410003370422735,0.4648772085254517,-29.72693573495876,13.045733388183342,-20.554192041648708
7180.0,5.004230740003639,16.468985329981233,1.7976009545916412,35.288285226764856,7.148617245130226,17.296463979487193
7200.0,-6.447212141592463,6.884706122608444,-1.0293221575883522,-35.50663834878171,-22.514120826321445,26.792190894828124
7220.0,6.839278260685267,12.506411721600053,2.4402799215694135,33.1762070973166,26.37655997531704,-14.88464172818515
7240.0,-4.524263669277312,4.695164275364359,-4.209330111025304,-19.640085355100005,-16.31534723722906,-23.803456781291644
7260.0,0.6001967935923563,12.221029718779752,0.41434317930587367,9.549270968389962,-1.5434192746246411,9.696327340358888
7280.0,2.701705404132428,12.958239298675133,4.591452466929163,7.047440704353341,17.50037883777412,27.434008853361362
7300.0,-5.013738657381288,6.611758399013457,-4.27828709662184,-16.591916648076943,-23.438478869861473,-8.879228724803305
7320.0,5.719122386999655,11.304386988843332,0.6196165970590248,28.123800597138302,16.086784030405436,-27.00810254013113
7340.0,-4.286952560066726,5.436457032238664,0.11441173217266629,-31.143360328977433,-2.7927557089996484,1.1564050348252102
7360.0,2.405690308777017,17.22647020296303,-0.8273697503265878,36.54082270102146,-15.372335495348274,26.659945420616
7380.0,-1.163422390531413,5.015255965424015,3.8678100471959382,-32.134501417277676,24.99368963162864,1.2841141353857488
7400.0,0.6377254423986689,10.735805472950965,-4.8229674845637645,26.73626056267687,-19.773090449849843,-31.2560160103082
7420.0,-1.6009812594622925,7.095866832556574,-0.1614564313629478,-14.19754167151911,5.233658703530329,-2.539203539295794
7440.0,1.9282458322936267,12.28655714228353,4.211313408235314,0.8400909977147953,13.773957042881412,28.230345085077726
7460.0,-1.8169495930596609,12.521476540768461,-2.986723141506435,9.40414567731719,-26.83159284560746,10.219673839740071
7480.0,-0.2603854462941594,4.265883934942893,0.7207093603691106,-21.024476016273525,19.393141301152763,-30.11723923416452
7500.0,2.9245859289296856,13.257274770433877,-1.5013629127492296,29.374750799529245,-4.941105396311122,-12.08165094629249
7520.0,-5.914749731880497,7.015071136786183,-0.23443045749698252,-36.266587264222004,-13.99098900646119,26.91092662900348
7540.0,7.012053940034903,15.98453073466721,4.768756163770888,33.70386720270353,23.59601938156431,13.871451719195026
7560.0,-6.420387338104039,3.7625124857258743,-4.686430840640018,-27.4906759856167,-21.633361672871203,-26.514181843253585
7580.0,3.2013664195529685,10.931507387594516,-0.1331376957881903,21.922524322513315,2.550017121903969,-20.017619156487775
7600.0,0.16454547566035901,10.372901661881954,3.0676901199370596,-6.647692567407616,11.674296018498447,18.969112432796983
7620.0,-3.3354716770409882,10.864260896838687,-1.6684294022032955,-7.9038100693755915,-23.112997804806977,20.949947018788514
7640.0,5.15515202776166,10.92040006184723,2.1751233767996094,16.28333777020233,20.71560929147394,-17.898925205390054
7660.0,-4.582131848879089,3.7605988043175573,-2.689057199677565,-29.336460813489243,-12.292881389587649,-24.801969432090182
7680.0,3.1737491316372317,15.877353648736332,-0.29945651713545407,29.777738638556457,-7.99028410469112,15.189811927560985
7700.0,-1.5326625769830773,6.728830490745173,5.1197992442020155,-36.42790911295138,24.115643496913503,30.181087835198852
7720.0,1.1261681405939097,13.514090908338172,-4.288988004767541,32.00989570477722,-24.000734670571784,-8.216647149456707
7740.0,-1.8767153947763393,3.8447026870636014,-0.34182442488656295,-25.43085425062996,9.633534498432025,-32.49685503551912
7760.0,2.644648427861498,12.350740465441685,0.9988763981361457,11.225038514372486,4.678537836068789,5.665907995362734
7780.0,-2.7562836407850484,12.156059790764637,-1.2561962606498827,-1.0019943413217045,-21.81461599699818,27.17262345140056
7800.0,1.4696292761085825,8.077374330858227,3.6061462262857793,-11.210516544998876,23.314228076397786,-6.683921897422076
7820.0,1.2589726903564056,10.481695423956124,-3.5927649487348554,21.421090337712865,-10.623802727006936,-30.3317872876674
7840.0,-4.528381600285176,5.329803842463822,-0.5444726922736345,-32.70784628833997,-6.019994068763461,0.6604202764125042
7860.0,7.028192405422666,17.079679972755756,4.956209188530227,33.85574126470922,19.33789604648047,29.12053784151997
7880.0,-7.343372828305908,5.591388284877749,-2.773070062279699,-31.61157376978666,-24.713192149830547,6.62777319701896
7900.0,5.24267970928604,11.66907195121282,0.15078919522393985,29.997769545460564,13.085105579135217,-28.619719694531174
7920.0,-1.9571936930444702,5.755807088077559,-0.4925819557888016,-16.502260863144247,0.82814302155289,-13.2935483045813
7940.0,-1.5064371981778448,13.061950869145084,-1.0200862717197232,7.534321618673306,-20.08220429234736,23.06440045414218
7960.0,3.82399665357907,12.020398473071335,4.33779956382242,4.150147510866951,26.551077027198044,17.504572204911387
7980.0,-4.172120373633246,5.044554026701599,-3.690051688044535,-19.590723422356227,-17.445914477753842,-22.562175177965763
8000.0,3.834915729224922,12.446773121961435,-1.0865513050004245,29.2356790927146,2.355097400944747,-16.19196422579563
8020.0,-2.147002837783796,7.085094386901021,3.769721518714108,-33.37694684222507,15.848091364793465,23.765348360001756
8040.0,1.1744455073719804,16.726729905764362,-2.059995728634937,35.28451067230166,-23.69584212358909,22.3458369847655
8060.0,-1.4666326437178705,3.7483561314601195,1.1850603582887096,-30.894079777842556,18.026896577119047,-21.68992769962128
8080.0,2.983052653968331,11.578500589981559,-1.8917553916364498,22.692269526288076,-2.9743557544369126,-28.418865063819656
8100.0,-3.4235198775230917,9.154719959358095,-1.3990283601381144,-10.901474598906585,-16.585477878408945,15.270115098193788
8120.0,2.8577876412945042,11.923049872553348,5.2000762398424545,-1.4387673824521032,22.66734247384805,26.4607109071656
8140.0,-0.7626348126082219,10.408650240744489,-3.540132091169482,10.273755122391737,-20.98432311992163,-11.897339478561436
8160.0,-2.494550875812157,3.911440642571626,-1.0865475202312005,-23.5109175558378,8.834052207179417,-26.48455406508464
8180.0,6.045471216073606,14.919579631071741,2.04274473884085,32.881815838125014,11.312855010380915,4.49615871227114
8200.0,-7.1212725657745235,7.307133868092607,-1.250894474793855,-35.61646984628515,-21.726259356791644,30.458504394341954
8220.0,7.0089021251710495,14.521423884320813,2.947310646064643,36.07300930172293,18.588247303929087,-1.1539680965932888
8240.0,-4.282806240633865,3.603007998540274,-2.7680706596464373,-25.286211090311035,-11.19977518790447,-31.91145397497028
8260.0,0.9148692891623813,11.89888424744392,-1.717070667153891,16.016251718237196,-7.411596427868619,-5.402178393768094
8280.0,1.9254287150120497,11.860107760950509,5.419321482456087,-3.7393293830768553,23.764053473849685,29.832782073874558
8300.0,-3.4170886589990026,9.23081993289828,-2.89473906610811,-6.18792978853401,-22.888495161934905,3.5865278382284003
8320.0,3.931842210931905,10.220568172167528,-0.9825016038200716,17.940741469961086,7.485291274254937,-29.835325119537504
8340.0,-2.652727859842989,4.8975356519771305,0.5092757162368751,-28.49987367047065,8.72420162110852,-11.048749801341385
8360.0,1.7164411596487337,16.766166961099866,-1.1840846361119577,33.953655957505106,-22.502547260020503,25.252537527752906
8380.0,-1.488110765741616,5.8850989083730685,4.142724189995765,-34.82898986823076,26.737403896075755,15.688297880222922
8400.0,2.4547794682389235,12.238060369965922,-2.97804867010556,35.75904548942872,-12.591047574595839,-24.46081702258377
8420.0,-3.8266106108091797,5.311629535495524,-2.119640575120809,-21.464153998358942,-8.939943519798657,-18.285306178070428
8440.0,4.171292581375047,13.465230796960094,4.603422246452686,12.547874460044277,18.087621378907762,20.02252012292547
8460.0,-2.5136455570329312,11.764218058261575,-2.192707852106585,-0.44421573403112613,-26.01612936550145,21.109707111431668
8480.0,-0.07668922746611047,6.163909149007085,0.8253126786491217,-13.479569176601437,16.787815052679257,-18.55852185058376
8500.0,3.6791920425852545,11.387766922763934,-0.8819812902630935,24.779866621632134,5.3379145647603465,-20.932620169291763
8520.0,-6.642877619367478,6.525178552698613,-1.9083667196905818,-33.509987315778446,-20.122381394486812,15.925382747067639
8540.0,7.552707509045838,17.211421241942883,5.440340392259193,32.64870202453081,24.711774724338124,27.05778622419498
8560.0,-5.910939287560436,3.832796774229708,-3.084601147248021,-33.954717165607484,-15.762570397134514,-12.37831263631894
8580.0,3.3055573467932544,11.31357563506264,-2.521799879326365,24.923876818430337,-0.6012361449317616,-28.97298971120619
8600.0,0.31519218581503133,7.920465232416778,3.0889624213076674,-13.269442090791939,18.04010468573085,4.850428883439199
8620.0,-2.9055786945217394,12.664399374859425,-1.5992752703596154,3.1887766256471237,-20.50972100290247,28.03474966839359
8640.0,3.2530636094430196,10.620366211344008,2.363617604957941,8.725420876019076,17.88535514847215,-3.3770787470686194
8660.0,-2.8139066629226632,4.212464783308858,-2.1670941796359426,-23.09293450098133,-2.2455998917859965,-31.32993547071378
8680.0,1.7156960319353711,14.005148160899823,-2.641957435134956,29.80271873317941,-16.278894680424152,-0.26348802685064665
8700.0,-1.1142465435895854,7.512424365260335,5.277357139953169,-33.22596487830269,26.403466771284084,26.53919525561353
8720.0,1.907460744281316,15.017858574809734,-2.4044292247991086,32.74843371943917,-18.64237991678493,6.916661382511713
8740.0,-3.649693761858004,3.057969791824338,-1.6315152430410556,-31.225198671361564,4.32054678370938,-28.15717333308342
8760.0,4.6150178621291955,12.291976278289964,1.070169728043891,20.903260862880398,14.815766704173596,-11.005441546858481
8780.0,-4.304470875094596,10.562073293890673,-1.7492318712268018,-10.094497226862433,-26.59613730814141,25.64826112811209
8800.0,1.9610757296480772,10.575746977441847,3.6423453897979434,-1.9240767910528798,20.848914615187947,13.47591767319316
8820.0,1.5485325936270538,10.035771062837124,-2.457014421927286,15.897403499159154,-3.870173998489583,-22.59671880319039
8840.0,-4.784604005751501,4.86431554578996,-2.9455732501241356,-24.20588627032734,-10.856217800591667,-16.187426596820796
8860.0,6.8126626930706236,16.56467977496336,4.5659854083823905,35.60672350981633,23.909067352036278,27.471393617463043
8880.0,-6.793467230467708,6.378712074461592,-1.6218351591893923,-31.070595318515394,-23.992352159983106,17.241478244136264
8900.0,5.099887541502431,12.747562308256896,-0.3081081219916036,30.648823774383672,8.110593983389753,-18.87614357069902
8920.0,-1.9531509816592314,3.9788462857594413,0.02898681187156886,-26.93038622941587,10.757695536703126,-23.848079722343762
8940.0,-0.9815696537074935,13.660514586805222,-1.935406482308823,15.896949592206923,-25.84083365536518,14.382890408027023
8960.0,2.027199304587397,11.228530532741217,4.888588801902355,-2.1900521743550883,23.51858403586906,24.858255450226366
8980.0,-2.7461396681687287,7.05412589467962,-2.363750838224768,-9.82467043941873,-7.52052912648962,-12.395583024513373
9000.0,1.4961217744429165,10.574441360245112,-2.694047075084898,18.83422946694237,-8.347079451771455,-25.804426589381087
9020.0,-1.0598581893946195,6.456477108155783,3.9053272866806976,-28.795861075959834,21.739301698635465,10.451770051515675
9040.0,1.1570643777123932,17.131267411584055,-1.4968140314522753,32.49880484523425,-18.940255451409435,26.368139288564617
9060.0,-2.9366012563064325,4.308246226521095,1.103185885846698,-33.52715448928738,9.453510123778733,-6.921219764513112
9080.0,4.689731966580151,11.858571726759884,-1.3331259302384715,28.18567109469862,6.787842171389772,-28.834137994992727
9100.0,-4.9647740078529115,6.943913914103129,-2.8218882095400715,-19.875027201925377,-21.336417177940486,1.315798649892106
9120.0,4.12944691707255,13.526154859012127,5.485716875752574,10.214767493912284,23.742069235842173,30.419162805397175
9140.0,-1.2278177586817052,10.349194261366552,-1.716432559216517,4.8978027202191114,-13.52978527546581,3.2954680640852776
9160.0,-2.788567919196492,5.120697649557507,-2.506332701111731,-13.944098764975134,-8.20977492288334,-31.155300973904495
9180.0,6.174275264385071,12.75596227084527,2.2283556322116773,28.096299030469318,19.693819993411037,-6.277156361924169
9200.0,-7.210270763288939,7.331589516704804,-1.3310744115007722,-32.800108735737915,-25.105764773981736,29.043229152478737
9220.0,6.325505284663637,15.803105666814668,2.964669535805952,33.78652265462005,18.016755979820736,8.18629158628673
9240.0,-3.7042821591486876,2.7949142195352485,-1.8844664399167306,-30.929388375340192,1.846526110864513,-23.334541646204016
9260.0,0.9351578989323119,12.15971045421539,-3.5526702317286025,23.59178817351621,-16.764421158862476,-15.061586611524982
9280.0,1.4985944515010203,9.746102224280753,5.233725460859295,-14.024382382640944,27.119131538753592,26.398656318374286
9300.0,-1.597213982941493,11.666853992231477,-0.6303629639143137,0.9535248297674803,-16.29705467776068,17.17245924953634
9320.0,1.1561443885919989,9.371016364436384,-1.3945633177910215,13.71373055637231,1.0773054994696631,-17.246745090734226
9340.0,-0.8405061926653593,4.766557764276058,0.8075579360003582,-23.138655881379258,19.719751088527868,-24.764203218338203
9360.0,1.016155782836087,15.70147122686578,-2.209220152264136,28.867920003933346,-25.177056413348772,16.80046367930719
9380.0,-1.869237698515233,6.9046307102465,4.452778993269513,-32.85613712927049,19.884748628547072,26.216140667507425
9400.0,4.176458360860744,13.502900494041729,-1.1846531103184657,35.28313181318931,-2.317159265420897,-17.043879054431226
9420.0,-5.606868408555177,3.391953198250538,-4.023897174514035,-27.23937721730814,-15.280314414590672,-28.996933734206568
9440.0,5.555673384225831,13.538229452173313,4.079858424942151,17.48350799198871,27.224403905065376,7.985813585102707
9460.0,-3.621317996152679,10.957014839423612,-0.9345063061342804,-7.356198295732345,-20.798231581892367,26.998304057556172
9480.0,-0.17602419772532676,8.4877143883949,-0.06238380327560478,-2.3981069415152407,2.7648134145770253,-5.5979716784809135
9500.0,3.693749994527587,10.142745967844263,0.022170255692056287,13.686116560903233,14.691194527829275,-29.556939254827885
9520.0,-6.409086957576045,6.356001291483128,-3.406270107186409,-26.41077650739295,-19.157681835208425,4.169190777616981
9540.0,6.661086966302865,17.262806731153574,5.202378415373071,33.158215047843406,23.9683658511128,31.18267280622426
9560.0,-5.156181929437909,4.616390373888327,-0.8314753199100234,-35.391516712598644,-8.862307017102061,-0.025238072608563034
9580.0,2.7540477930110865,11.929997908759958,-3.3910118573979005,30.471224702136077,-9.235939208554965,-30.503844466601254
9600.0,-0.17594805596346333,5.857969879963037,2.986869690366256,-22.98661470337809,24.790860953203385,-5.446715510350693
9620.0,-1.2239153160103933,14.148580038859631,-1.0980499945895632,12.465327763883444,-24.858585896799152,29.83823225097306
9640.0,0.6867932518806477,10.505197956218941,2.237636530233554,-3.8478277816348285,9.98446039712405,8.336438107701841
9660.0,-0.3429748054051049,5.839488023840406,-0.7905163687317102,-10.272818654551674,7.459298267770165,-27.48211151388556
9680.0,0.02253987330910895,11.473676128233674,-3.9888904052028065,24.045464490756583,-20.543470861190578,-14.079119521411222
9700.0,-1.178702676083096,7.528915494835568,5.011501773864412,-33.09349574078791,23.450613305552025,26.592791611979994
9720.0,3.0140499995475625,16.12948225837122,-0.07029042496745086,37.276487573417775,-14.957964525794727,13.983329818853427
9740.0,-5.333549115276307,3.077184409337163,-2.329863904411923,-33.58272391873703,-5.737628176859149,-24.907869691288134
9760.0,6.197258106998209,12.204185213166456,1.3902480926464946,27.896156622028727,20.011031334636403,-19.428660157854818
9780.0,-5.330227180549734,9.141287319959245,-1.7684665741102672,-18.618464395444054,-25.44337410186371,18.260795723581808
9800.0,2.2493972518304663,12.92849363669886,3.3583677076091356,4.95675337225498,12.693969249110156,27.228061333321747
9820.0,1.6222107422744343,9.387323962731783,-0.40159047443677187,3.261090345138869,2.0407445121360217,-19.18796871234778
9840.0,-5.2536057272646755,4.896481741715059,-4.790624693293917,-18.816747641591842,-22.0065753326999,-30.466192431097365
9860.0,6.6424028582434325,14.824783538782544,4.4135847432454804,28.806657279792997,24.503786291772386,14.384794271472437
9880.0,-6.080925171985773,7.61201537257062,-0.38313768253354125,-34.564535205365296,-15.472308168193793,30.344616538247294
9900.0,4.260337863991818,13.718163544673608,-0.5397606655518178,37.378813452648494,-2.146629863454474,-7.573755697174155
9920.0,-1.396280192178131,2.9168731762895543,0.5430255853410155,-30.297014917246617,19.090863123744242,-31.822388944236824
9940.0,-0.023859193982260093,13.541811654803181,-3.2740295837686975,21.069982537181836,-21.024470001545946,3.427924238588457
9960.0,0.5627651494964442,10.184331340280833,4.509568854847688,-14.565547054345412,19.233609138095794,31.26191223601325
9980.0,0.23427521114448902,9.827636067711435,-0.020878870627944836,-1.3025002043081366,-0.06110482539352994,-1.9619662517186156
